timestamp(ms),AccelX,AccelY,AccelZ,AccelXExp,AccelYExp,AccelZExp,
"1701189315.017","-120",,,,,,
"1701189315.018",,"6","2050","-124","2","2047",
"1701189315.098","-120",,,,,,
"1701189315.099",,"4","2047","-124","2","2045",
"1701189315.179","-120","5","2050","-124","2","2048",
"1701189315.26","-120","7","2053","-124","2","2048",
"1701189315.339","-120","6","2055","-124","2","2048",
"1701189315.419","-120",,,,,,
"1701189315.42",,"5","2054","-124","2","2048",
"1701189315.5","-120",,,,,,
"1701189315.501",,"5","2051","-124","2","2048",
"1701189315.581","-120",,,,,,
"1701189315.582",,"6","2050","-124","2","2048",
"1701189315.662","-120",,,,,,
"1701189315.663",,"4","2053","-124","2","2048",
"1701189315.743","-120","6","2054","-124","2","2049",
"1701189315.823","-120",,,,,,
"1701189315.824",,"4","2048","-124","2","2046",
"1701189315.905","-130","14","2050","-131","5","2046",
"1701189315.985","-120","4","2054","-119","0","2046",
"1701189316.066","-120","7","2052","-120","0","2047",
"1701189316.146","-120","5","2051","-121","0","2047",
"1701189316.227","-120","7","2050","-121","0","2047",
"1701189316.307","-120","7","2051","-122","0","2047",
"1701189316.387","-120","5","2053","-122","0","2047",
"1701189316.467","-120",,,,,,
"1701189316.468",,"6","2052","-122","0","2046",
"1701189316.567","-120","6","2049","-124","0","2045",
"1701189316.629","-120",,,,,,
"1701189316.63",,"8","2053","-124","0","2046",
"1701189316.711","-120",,,,,,
"1701189316.712",,"6","2048","-124","0","2043",
"1701189316.79","-120",,,,,,
"1701189316.791",,"6","2050","-124","0","2045",
"1701189316.87","-120",,,,,,
"1701189316.871",,"7","2050","-124","0","2047",
"1701189316.952","-120","6","2052","-124","0","2047",
"1701189317.031","-120",,,,,,
"1701189317.032",,"7","2052","-124","0","2047",
"1701189317.113","-120","5","2055","-124","0","2047",
"1701189317.193","-120","8","2051","-124","1","2047",
"1701189317.271","-120",,,,,,
"1701189317.272",,"8","2050","-124","1","2047",
"1701189317.354","-120","5","2053","-124","1","2047",
"1701189317.434","-120","6","2050","-124","1","2047",
"1701189317.514","-120",,,,,,
"1701189317.515",,"6","2053","-124","1","2047",
"1701189317.596","-120","6","2053","-124","1","2047",
"1701189317.676","-120",,,,,,
"1701189317.677",,"5","2050","-124","1","2047",
"1701189317.758","-120","7","2048","-124","1","2046",
"1701189317.839","-120","6","2050","-124","1","2046",
"1701189317.919","-120",,,,,,
"1701189317.92",,"6","2050","-124","1","2046",
"1701189318","-120","8","2049","-124","1","2046",
"1701189318.081","-120","7","2051","-124","1",,
"1701189318.082",,,,,,"2046",
"1701189318.162","-120","7","2049","-124","1","2046",
"1701189318.243","-120","7","2049","-124","2","2045",
"1701189318.324","-120","7","2048","-124","2","2045",
"1701189318.404","-120",,,,,,
"1701189318.405",,"7","2049","-124","2","2045",
"1701189318.486","-120","6","2061","-124","2","2055",
"1701189318.566","-120","6","2052","-124","2","2050",
"1701189318.646","-120",,,,,,
"1701189318.647",,"6","2057","-124","2","2052",
"1701189318.728","-120","6","2053","-124",,,
"1701189318.729",,,,,"2","2048",
"1701189318.807","-120","5","2052","-124","2","2048",
"1701189318.888","-120","6","2052","-124","2","2048",
"1701189318.968","-120",,,,,,
"1701189318.969",,"6","2050","-124","2","2048",
"1701189319.05","-120","6","2048","-124","2","2048",
"1701189319.131","-120","8","2051","-124","2","2048",
"1701189319.212","-120","8","2051","-124","2","2048",
"1701189319.292","-120","7","2056","-124","2","2048",
"1701189319.372","-120",,,,,,
"1701189319.373",,"7","2053","-124","2","2048",
"1701189319.454","-120","7","2053","-124","2","2048",
"1701189319.535","-120","9","2053","-124","2","2048",
"1701189319.616","-120","7","2050","-124","2","2048",
"1701189319.696","-120",,,,,,
"1701189319.697",,"8","2052","-124","2","2045",
"1701189319.778","-120","6","2054",,,,
"1701189319.779",,,,"-124","2","2047",
"1701189319.859","-120","8","2057","-124","2","2051",
"1701189319.954","-120","7","2052","-124","2","2049",
"1701189320.02","-120",,,,,,
"1701189320.021",,"7","2051","-124","2","2049",
"1701189320.101","-120",,,,,,
"1701189320.102",,"7","2051","-124","2","2049",
"1701189320.183","-120","7","2053","-124","2","2048",
"1701189320.263","-120","6","2055","-124","2","2049",
"1701189320.344","-120","6","2050","-124","2","2049",
"1701189320.425","-120","8","2051","-124","2",,
"1701189320.426",,,,,,"2048",
"1701189320.506","-120",,,,,,
"1701189320.507",,"6","2047","-124","2",,
"1701189320.508",,,,,,"2046",
"1701189320.587","-120","5","2050","-124","2","2046",
"1701189320.668","-120","6","2052","-124","2","2047",
"1701189320.749","-120","6","2052","-124","2",,
"1701189320.75",,,,,,"2047",
"1701189320.83","-120","5",,,,,
"1701189320.831",,,"2050","-124","2","2046",
"1701189320.91","-120",,,,,,
"1701189320.911",,"7","2055","-124","2","2047",
"1701189320.991","-120","7","2053","-124","2","2047",
"1701189321.072","-120","7","2054","-124","2","2047",
"1701189321.153","-120","5",,,,,
"1701189321.154",,,"2051","-124","2","2046",
"1701189321.234","-120",,,,,,
"1701189321.235",,"6","2052","-124","2","2046",
"1701189321.315","-120",,,,,,
"1701189321.316",,"7","2052","-124","2","2047",
"1701189321.397","-120","6","2049","-124","2","2046",
"1701189321.478","-120","7","2053",,,,
"1701189321.479",,,,"-124","2","2047",
"1701189321.559","-120","8",,,,,
"1701189321.56",,,"2051","-124","2","2047",
"1701189321.64","-120","6","2051","-124","2","2047",
"1701189321.721","-120",,,,,,
"1701189321.722",,"7","2052","-124","2","2047",
"1701189321.802","-120","6","2052","-124","2","2047",
"1701189321.882","-120","5","2054","-124","2","2047",
"1701189321.963","-120","6","2053","-124","2","2047",
"1701189322.064","-120","7","2052","-124","2",,
"1701189322.065",,,,,,"2048",
"1701189322.125","-120","7","2052","-124","2","2046",
"1701189322.209","-120",,,,,,
"1701189322.21",,"8","2053","-124",,,
"1701189322.211",,,,,"2","2049",
"1701189322.286","-120","6","2054","-124","2","2049",
"1701189322.367","-120","5","2054","-124","2","2049",
"1701189322.446","-120","7","2050","-124","2","2047",
"1701189322.527","-120","7","2053","-124",,,
"1701189322.528",,,,,"2","2048",
"1701189322.608","-120","7","2050","-124","2","2046",
"1701189322.689","-120","7",,,,,
"1701189322.69",,,"2051","-124","2",,
"1701189322.692",,,,,,"2046",
"1701189322.77","-120","6","2051","-124","2","2046",
"1701189322.851","-120","7","2053","-124","2","2045",
"1701189322.931","-120","7","2051","-124","2","2046",
"1701189323.009","-120",,,,,,
"1701189323.01",,"6","2054","-124","2","2049",
"1701189323.107","-120","6","2053","-124","2","2048",
"1701189323.17","-120","7","2052","-124","2","2048",
"1701189323.251","-120","8","2051","-124","2","2048",
"1701189323.332","-120","6","2051","-124","2","2048",
"1701189323.412","-120",,,,,,
"1701189323.413",,"6","2050","-124","2","2049",
"1701189323.493","-120",,,,,,
"1701189323.494",,"6","2051","-124","2","2049",
"1701189323.575","-120","5","2052","-124","2","2049",
"1701189323.655","-120",,,,,,
"1701189323.656",,"8","2053","-124","2","2049",
"1701189323.737","-120","7","2051","-124","2","2049",
"1701189323.818","-120","6","2050","-124","2","2049",
"1701189323.897","-120","6","2054","-124","2","2049",
"1701189323.978","-120","7",,,,,
"1701189323.979",,,"2052","-124","2","2049",
"1701189324.059","-120","7","2051","-124","2","2049",
"1701189324.155","-120","5","2053","-124","2","2049",
"1701189324.221","-120","7","2053","-124","2","2049",
"1701189324.302","-120","5","2051","-124","2","2048",
"1701189324.383","-120","5","2051","-124","2","2048",
"1701189324.464","-120","7","2052","-124","2","2048",
"1701189324.545","-120","6","2052","-124","2","2048",
"1701189324.626","-120","6","2054","-124","2","2048",
"1701189324.707","-120","6","2052","-124","2","2048",
"1701189324.788","-120","6","2051","-124","2","2048",
"1701189324.868","-120","6","2050","-124","2","2048",
"1701189324.949","-120","7","2054","-124","2","2048",
"1701189325.03","-120","8","2052","-124","2","2048",
"1701189325.111","-120","8","2051","-124","2","2048",
"1701189325.193","-120","4","2052","-124","2","2048",
"1701189325.273","-120","6","2053","-124","2","2048",
"1701189325.354","-120","5","2048","-124","2","2044",
"1701189325.434","-120","8","2056","-124","2","2051",
"1701189325.515","-120","7","2054","-124","2","2049",
"1701189325.596","-120","7","2055","-124","2","2049",
"1701189325.677","-120","6","2054","-124","2",,
"1701189325.678",,,,,,"2052",
"1701189325.758","-120","6","2052","-124","2","2051",
"1701189325.837","-120","7","2053","-124","2","2051",
"1701189325.918","-120",,,,,,
"1701189325.919",,"6","2051","-124","2","2050",
"1701189325.999","-120","6","2049","-124","2","2048",
"1701189326.08","-120","8","2052","-124","2","2046",
"1701189326.161","-120","7","2051","-124",,,
"1701189326.162",,,,,"2","2047",
"1701189326.241","-120","6","2056","-124","2","2047",
"1701189326.322","-120",,,,,,
"1701189326.323",,"6","2052","-124","2","2047",
"1701189326.403","-120","6","2052",,,,
"1701189326.404",,,,"-124","2","2047",
"1701189326.484","-120","6","2050","-124","2","2046",
"1701189326.565","-120","8","2051","-124","2","2047",
"1701189326.646","-120","7","2051","-124","2","2047",
"1701189326.727","-120","8","2054","-124","2","2047",
"1701189326.808","-120","6","2051","-124","2","2047",
"1701189326.888","-120","8","2055","-124",,,
"1701189326.889",,,,,"2","2047",
"1701189326.969","-120","5","2047","-124","2","2045",
"1701189327.048","-120","7","2051","-124","2","2045",
"1701189327.129","-120","8","2054","-124","2","2049",
"1701189327.21","-120","8","2052","-124","2","2049",
"1701189327.291","-120","8","2051","-124","2","2049",
"1701189327.372","-120","4","2050",,,,
"1701189327.373",,,,"-124","2","2046",
"1701189327.453","-120","5","2050","-124","2","2046",
"1701189327.534","-120","7","2051","-124","2","2046",
"1701189327.615","-120","7","2053","-124","2","2046",
"1701189327.696","-120","6","2054","-124","2","2046",
"1701189327.783","-120",,,,,,
"1701189327.784",,"5","2054","-124","2","2047",
"1701189327.857","-120","6","2054","-124","2","2047",
"1701189327.94","-120","6","2053","-124","2","2047",
"1701189328.02","-120","5","2049","-124","2",,
"1701189328.021",,,,,,"2046",
"1701189328.101","-120","7","2053","-124","2","2046",
"1701189328.182","-120","8","2051","-124",,,
"1701189328.183",,,,,"2","2046",
"1701189328.263","-120",,,,,,
"1701189328.264",,"8","2052","-124","2","2046",
"1701189328.344","-120","7","2050","-124","2","2047",
"1701189328.423","-120","7","2051","-124","2","2047",
"1701189328.504","-120","6","2052","-124","2","2047",
"1701189328.585","-120","7","2051","-124","2","2047",
"1701189328.666","-120","7","2053","-124","2","2047",
"1701189328.747","-120","8","2053","-124","2","2047",
"1701189328.836","-120","8","2053","-124","2","2047",
"1701189328.909","-120","8","2054","-124","2",,
"1701189328.91",,,,,,"2047",
"1701189328.99","-120","8","2052","-124","2","2047",
"1701189329.071","-120","7","2051","-124",,,
"1701189329.072",,,,,"2","2047",
"1701189329.152","-120","7","2053","-124","2","2047",
"1701189329.231","-120","8","2049","-124",,,
"1701189329.232",,,,,"2","2047",
"1701189329.312","-120","7","2055","-124","2","2047",
"1701189329.393","-120","5","2052","-124","2","2047",
"1701189329.474","-120","6","2052","-124","2","2047",
"1701189329.553","-120","7","2054","-124","2","2047",
"1701189329.634","-120","8","2052",,,,
"1701189329.635",,,,"-124","2","2047",
"1701189329.715","-120","7","2054","-124","2","2047",
"1701189329.795","-120","6","2053","-124","2","2047",
"1701189329.889","-120","5","2052","-124","2","2047",
"1701189329.955","-120","6","2052",,,,
"1701189329.956",,,,"-124","2","2047",
"1701189330.036","-120","7","2050","-124","2","2046",
"1701189330.117","-120","6","2052","-124","2","2046",
"1701189330.198","-120","7","2049","-124","2","2046",
"1701189330.279","-120","7","2053","-124",,,
"1701189330.28",,,,,"2","2046",
"1701189330.36","-120","8","2051","-124",,,
"1701189330.361",,,,,"2","2046",
"1701189330.441","-120","7","2053","-124",,,
"1701189330.442",,,,,"2","2046",
"1701189330.522","-120","8","2049","-124","2","2046",
"1701189330.603","-120","7","2052","-124","2","2046",
"1701189330.684","-120","7","2052","-124","2","2046",
"1701189330.765","-120","7","2051","-124","2","2046",
"1701189330.846","-120","7","2051","-124","2","2046",
"1701189330.941","-120","8","2052","-124","2","2046",
"1701189331.008","-120","5","2050","-124","2","2046",
"1701189331.088","-120","6","2052","-124","2",,
"1701189331.089",,,,,,"2046",
"1701189331.169","-120","8","2056","-124","2","2047",
"1701189331.25","-120","7","2052","-124","2","2047",
"1701189331.331","-120","7","2050",,,,
"1701189331.332",,,,"-124","2","2047",
"1701189331.412","-120","9","2052","-124",,,
"1701189331.413",,,,,"2","2047",
"1701189331.493","-120","7",,,,,
"1701189331.494",,,"2052","-124","2","2045",
"1701189331.572","-120","8","2053",,,,
"1701189331.573",,,,"-124","2","2046",
"1701189331.653","-120","7","2052","-124",,,
"1701189331.654",,,,,"2","2046",
"1701189331.734","-120","8","2052","-124","2","2046",
"1701189331.815","-120","6","2051",,,,
"1701189331.816",,,,"-124","2","2046",
"1701189331.896","-120","5","2051","-124","2","2046",
"1701189331.984","-120","4","2053",,,,
"1701189331.985",,,,"-124","2","2046",
"1701189332.058","-120",,,,,,
"1701189332.059",,"6","2052","-124","2","2046",
"1701189332.139","-120","7","2054","-124","2",,
"1701189332.14",,,,,,"2046",
"1701189332.22","-120",,,,,,
"1701189332.221",,"7","2054","-124","2","2049",
"1701189332.301","-120","8","2052","-124","2","2049",
"1701189332.381","-120","7",,,,,
"1701189332.382",,,"2055","-124","2","2049",
"1701189332.462","-120","5","2047","-124","2",,
"1701189332.463",,,,,,"2045",
"1701189332.545","-120","8","2052","-124","2","2045",
"1701189332.624","-120","7","2052","-124","2","2045",
"1701189332.705","-120","6",,,,,
"1701189332.706",,,"2053","-124","2","2046",
"1701189332.786","-120","7","2054","-124","2",,
"1701189332.787",,,,,,"2046",
"1701189332.867","-120","7","2053","-124","2","2046",
"1701189332.948","-120","7","2051","-124","2",,
"1701189332.949",,,,,,"2046",
"1701189333.029","-120",,,,,,
"1701189333.03",,"6","2051","-124","2","2046",
"1701189333.11","-120","7","2051","-124","2","2046",
"1701189333.191","-120","8","2052","-124","2","2046",
"1701189333.271","-120","7","2054","-124","2","2046",
"1701189333.352","-120","8",,,,,
"1701189333.353",,,"2052","-124","2","2046",
"1701189333.433","-120","9","2053","-124","2","2046",
"1701189333.514","-120","7","2050",,,,
"1701189333.515",,,,"-124","2","2046",
"1701189333.595","-120","7","2052","-124","2","2046",
"1701189333.675","-120","8","2052","-124",,,
"1701189333.676",,,,,"2","2046",
"1701189333.757","-120","7","2050","-124","2",,
"1701189333.758",,,,,,"2046",
"1701189333.836","-120","7","2053","-124",,,
"1701189333.837",,,,,"2","2046",
"1701189333.917","-120","6","2053","-124","2","2049",
"1701189333.998","-120","5","2055","-124","2","2049",
"1701189334.081","-120","6","2052","-124","2","2049",
"1701189334.162","-120","7","2053","-124","2",,
"1701189334.163",,,,,,"2049",
"1701189334.243","-120","6","2052",,,,
"1701189334.244",,,,"-124","2","2049",
"1701189334.322","-120","7",,,,,
"1701189334.323",,,"2051","-124","2","2049",
"1701189334.403","-120","6","2053","-124","2","2049",
"1701189334.484","-120","7","2052",,,,
"1701189334.485",,,,"-124","2","2049",
"1701189334.575","-120",,,,,,
"1701189334.576",,"6","2050","-124","2","2049",
"1701189334.646","-120","7",,,,,
"1701189334.647",,,"2053","-124","2","2049",
"1701189334.727","-120","7","2053",,,,
"1701189334.728",,,,"-124","2","2049",
"1701189334.808","-120","7","2051","-124",,,
"1701189334.809",,,,,"2","2049",
"1701189334.888","-120","8","2053","-124",,,
"1701189334.889",,,,,"2","2049",
"1701189334.998","-120","7","2051","-124","2","2049",
"1701189335.05","-120","7","2051","-124","2",,
"1701189335.051",,,,,,"2046",
"1701189335.131","-120",,,,,,
"1701189335.132",,"6","2049","-124","2","2046",
"1701189335.212","-120","5","2052","-124","2",,
"1701189335.213",,,,,,"2049",
"1701189335.293","-120","5","2051","-124","2",,
"1701189335.294",,,,,,"2048",
"1701189335.375","-120","6","2056","-124","2","2051",
"1701189335.454","-120",,,,,,
"1701189335.455",,"7","2055","-124","2","2050",
"1701189335.536","-120","7","2051","-124","2","2049",
"1701189335.629","-120","5","2050","-124","2","2045",
"1701189335.697","-120","7","2052","-124","2","2045",
"1701189335.778","-120",,,,,,
"1701189335.779",,"6","2046","-124","2","2044",
"1701189335.86","-120","7","2050","-124","2","2048",
"1701189335.939","-120","7","2052","-124","2","2049",
"1701189336.02","-120","8","2049","-124","2","2046",
"1701189336.1","-120","6","2050","-124","2","2047",
"1701189336.181","-120","5","2051","-124","2","2047",
"1701189336.261","-120",,,,,,
"1701189336.262",,"7","2053","-124","2","2049",
"1701189336.342","-120","6","2053","-124","2",,
"1701189336.343",,,,,,"2049",
"1701189336.422","-120","7","2057",,,,
"1701189336.423",,,,"-124","2","2052",
"1701189336.503","-120","4","2053",,,,
"1701189336.504",,,,"-124","2","2051",
"1701189336.585","-120","7","2053","-124","2","2041",
"1701189336.667","-120","4","2054","-124","2","2044",
"1701189336.746","-120","6","2054","-124","2","2046",
"1701189336.826","-120","7","2050","-124",,,
"1701189336.827",,,,,"2","2044",
"1701189336.905","-120","7","2050","-124","2",,
"1701189336.906",,,,,,"2045",
"1701189336.986","-120","7","2049",,,,
"1701189336.987",,,,"-124","2","2044",
"1701189337.067","-120","7","2051",,,,
"1701189337.068",,,,"-124","2","2044",
"1701189337.148","-120","9",,,,,
"1701189337.149",,,"2045","-124","2","2039",
"1701189337.227","-120","7","2048","-124",,,
"1701189337.228",,,,,"2","2043",
"1701189337.308","-120","7","2050","-124","2",,
"1701189337.309",,,,,,"2047",
"1701189337.386","-135","27",,,,,
"1701189337.387",,,"2048","-134","21","2047",
"1701189337.467","-135","62","2051","-135",,,
"1701189337.468",,,,,"59","2047",
"1701189337.548","-125","-3","2052",,,,
"1701189337.549",,,,"-124","-1","2050",
"1701189337.628","-115","11","2054",,,,
"1701189337.629",,,,"-119","6","2048",
"1701189337.709","-120",,,,,,
"1701189337.71",,"13","2050","-125","7","2044",
"1701189337.792","-120","9","2053","-114","2",,
"1701189337.793",,,,,,"2046",
"1701189337.872","-105","29","2052","-109",,,
"1701189337.873",,,,,"24","2046",
"1701189337.953","-120","-22","2050","-123","-24","2046",
"1701189338.035","-138","7","2048","-142","1","2045",
"1701189338.113","-120","9","2050","-128",,,
"1701189338.114",,,,,"2","2046",
"1701189338.193","-120",,,,,,
"1701189338.194",,"1","2050","-125","0","2046",
"1701189338.274","-120","3","2051",,,,
"1701189338.275",,,,"-125","0","2046",
"1701189338.354","-120","49","2055","-120","41","2046",
"1701189338.435","-126","138","2050","-125","125","2048",
"1701189338.515","-150","-223","2047","-152","-185",,
"1701189338.516",,,,,,"2045",
"1701189338.596","-120","-10","2051",,,,
"1701189338.597",,,,"-130","-20","2046",
"1701189338.678","-120","0","2049","-129","0","2046",
"1701189338.758","-96","0","2049","-91","-1","2048",
"1701189338.837","-210",,,,,,
"1701189338.838",,"-14","2107","-248","-15","2089",
"1701189338.916","-468","227","2786",,,,
"1701189338.917",,,,"-459","155","2693",
"1701189338.998","184","51","2390","158","65","2406",
"1701189339.077","632","-58","2051","625","-57","2060",
"1701189339.157","295","78","1879","311","76",,
"1701189339.158",,,,,,"1885",
"1701189339.238","-289",,,,,,
"1701189339.239",,"359","1683","-256","350","1682",
"1701189339.319","-445","787","1834",,,,
"1701189339.32",,,,"-438","763","1820",
"1701189339.4","-305","718","1835","-301",,,
"1701189339.401",,,,,"732","1851",
"1701189339.481","-142",,,,,,
"1701189339.482",,"744","1988","-154","740","1984",
"1701189339.563","11","858","2217","1","842","2196",
"1701189339.643","93","755","2079",,,,
"1701189339.644",,,,"87","763","2090",
"1701189339.724","236",,,,,,
"1701189339.725",,"724","2003","220","725","2011",
"1701189339.804","329","680","2059","324","681","2058",
"1701189339.885","200","736","2183","202","724","2157",
"1701189339.966","338","632","1882","330",,,
"1701189339.967",,,,,"630","1890",
"1701189340.047","435","716","1651",,,,
"1701189340.048",,,,"429","712","1668",
"1701189340.126","453",,,,,,
"1701189340.127",,"733","1601","440","726","1603",
"1701189340.207","472","866","1666","463","852","1652",
"1701189340.287","604","952","1785","587","944","1776",
"1701189340.368","477","1243","1882",,,,
"1701189340.369",,,,"484","1231","1858",
"1701189340.449","508","1103","1452","497","1114","1483",
"1701189340.528","588","1033","1142","589","1034","1143",
"1701189340.609","823","1160","1240","821",,,
"1701189340.61",,,,,"1132","1222",
"1701189340.688","1085","1182","1250","1061","1180","1252",
"1701189340.77","953","1259","1661","959","1251",,
"1701189340.771",,,,,,"1628",
"1701189340.849","439","989","1733","458","997","1719",
"1701189340.93","428","614",,,,,
"1701189340.931",,,"2016","413","629","1991",
"1701189341.011","58","430","1906","73","432","1896",
"1701189341.09","-164","266","1446","-160",,,
"1701189341.091",,,,,"273","1474",
"1701189341.171","444",,,,,,
"1701189341.172",,"14","1353","409","28","1372",
"1701189341.252","1076","-401","1461","1048","-393","1467",
"1701189341.333","1268","-299","2077","1257","-331","2044",
"1701189341.411","1809","-204","2317","1793","-217","2304",
"1701189341.492","1236","-420","1892",,,,
"1701189341.493",,,,"1339","-378","1911",
"1701189341.573","1032","-498",,,,,
"1701189341.574",,,"1982","1045","-519","1936",
"1701189341.654","1019","-910","1559","1023","-910","1561",
"1701189341.735","804","-853","1782","819",,,
"1701189341.736",,,,,"-853","1772",
"1701189341.815","991",,,,,,
"1701189341.816",,"-691","1774","962","-698","1786",
"1701189341.896","1232","-580","1201","1213",,,
"1701189341.897",,,,,"-590","1220",
"1701189341.977","1190","-690","1466",,,,
"1701189341.978",,,,"1183","-684","1467",
"1701189342.058","1068","-932","1418","1103","-903","1444",
"1701189342.137","1984",,,,,,
"1701189342.138",,"-12","2204","1932","-55","2173",
"1701189342.219","928","-516","1912","965","-492","1925",
"1701189342.299","545","-1002","1142","569",,,
"1701189342.3",,,,,"-981","1165",
"1701189342.383","1146","-676","1647","1136","-691","1628",
"1701189342.457","787","-902","1969","805","-893","1941",
"1701189342.539","710","-1058","1335",,,,
"1701189342.54",,,,"710","-1059","1349",
"1701189342.621","890","-1040","1126","908","-1047","1116",
"1701189342.701","2172","-11",,,,,
"1701189342.702",,,"1743","2085","-66","1734",
"1701189342.782","1017","-769","1122","1057","-743",,
"1701189342.783",,,,,,"1155",
"1701189342.863","1120",,,,,,
"1701189342.864",,"-522","1624","1148","-510","1640",
"1701189342.942","907","-631","1606","926","-629","1612",
"1701189343.023","1740","-913","1372",,,,
"1701189343.024",,,,"1659","-905","1412",
"1701189343.105","1035","-947","1566","1075","-960","1561",
"1701189343.184","1153","-883","1334","1146","-883",,
"1701189343.185",,,,,,"1373",
"1701189343.265","1070","-1069","1296","1063","-1067",,
"1701189343.266",,,,,,"1281",
"1701189343.346","1086","-861","1688",,,,
"1701189343.347",,,,"1068","-885","1667",
"1701189343.429","891","-1085","1458","910","-1075","1443",
"1701189343.506","869",,,,,,
"1701189343.507",,"-1195","1497","889","-1197","1467",
"1701189343.587","1325","-679","1884","1300",,,
"1701189343.588",,,,,"-711","1854",
"1701189343.668","2021","-259","1854","1989",,,
"1701189343.669",,,,,"-276","1858",
"1701189343.748","1633","-386",,,,,
"1701189343.749",,,"1185","1661","-385","1199",
"1701189343.83","1007","-611","879","1018","-594","898",
"1701189343.91","497","-753",,,,,
"1701189343.911",,,"686","513","-753","714",
"1701189343.991","553","-785","1126","556","-796",,
"1701189343.992",,,,,,"1093",
"1701189344.071","1192","-580","1258","1159","-575","1271",
"1701189344.152","2098","-523","1192",,,,
"1701189344.153",,,,"2048","-491","1219",
"1701189344.233","1694",,,,,,
"1701189344.234",,"-73","1788","1721","-111","1732",
"1701189344.314","1728","-269","1641","1728","-275","1624",
"1701189344.395","1449","-383",,,,,
"1701189344.396",,,"1499","1468","-393","1496",
"1701189344.474","1493","-247","1548",,,,
"1701189344.475",,,,"1494","-267","1525",
"1701189344.555","1398",,,,,,
"1701189344.556",,"-417","1143","1429","-418","1140",
"1701189344.636","1393","-491",,,,,
"1701189344.637",,,"1114","1498","-485","1122",
"1701189344.715","1996","-455","682","2048","-481","648",
"1701189344.797","2081","-530","804","2054","-508","809",
"1701189344.877","1961","-668","1024",,,,
"1701189344.878",,,,"1934","-693","952",
"1701189344.958","2113","-1445","-130",,,,
"1701189344.959",,,,"2130","-1382","-84",
"1701189345.04","2009","-1089","347","2036","-1101","293",
"1701189345.122","1873","-1083","939","1885","-1093","858",
"1701189345.2","1434",,,,,,
"1701189345.201",,"-840","-69","1518","-801","2",
"1701189345.281","2005",,,,,,
"1701189345.282",,"-709","514","1973","-696","489",
"1701189345.361","1920","-734","128","1935","-730","126",
"1701189345.44","1569",,,,,,
"1701189345.441",,"-731","-256","1600","-731","-247",
"1701189345.523","2109","-668","203","2063","-677","165",
"1701189345.601","2060","-835","141","2053","-832","143",
"1701189345.682","1988",,,,,,
"1701189345.683",,"-845","187","1984","-846","162",
"1701189345.762","1745","-759","-47",,,,
"1701189345.763",,,,"1766","-769","-60",
"1701189345.843","2545","-635","-114","2521",,,
"1701189345.844",,,,,"-648","-122",
"1701189345.922","1746","-548",,,,,
"1701189345.923",,,"-398","1802","-552","-394",
"1701189346.003","1908","-357",,,,,
"1701189346.004",,,"-476","1866","-373","-484",
"1701189346.084","2319",,,,,,
"1701189346.085",,"-71","-313","2304","-92","-336",
"1701189346.164","1799",,,,,,
"1701189346.165",,"-275","-143","1813","-253","-138",
"1701189346.245","1744","-307","419","1735",,,
"1701189346.246",,,,,"-297","396",
"1701189346.326","1866","-389","484","1850","-384",,
"1701189346.327",,,,,,"478",
"1701189346.407","2113",,,,,,
"1701189346.408",,"-450","465","2096","-461","453",
"1701189346.489","1754","-501","402","1788","-502","400",
"1701189346.569","1971",,,,,,
"1701189346.57",,"-528","446","1957","-530","437",
"1701189346.65","1977",,,,,,
"1701189346.651",,"-542","-59","1974","-543","-33",
"1701189346.732","2429","-380","-203","2407","-400","-197",
"1701189346.812","2384","74","-395","2387","62","-383",
"1701189346.894","2388","558","-492","2408","520","-496",
"1701189346.974","2296","686","-900","2323",,,
"1701189346.975",,,,,"670","-910",
"1701189347.055","1404",,,,,,
"1701189347.056",,"232","-1135","1470","259","-1143",
"1701189347.137","1383","239","-1096","1387","231","-1103",
"1701189347.215","930","91",,,,,
"1701189347.216",,,"-1553","927","91","-1521",
"1701189347.296","425","165","-1598","434","144",,
"1701189347.297",,,,,,"-1595",
"1701189347.378","536","-35","-1960","534","-28","-1943",
"1701189347.458","598","125","-2064",,,,
"1701189347.459",,,,"590","111","-2080",
"1701189347.537","900","250",,,,,
"1701189347.538",,,"-2301","871","226","-2282",
"1701189347.618","932",,,,,,
"1701189347.619",,"19","-1857","925","15","-1895",
"1701189347.699","789","51","-1266","791","47","-1308",
"1701189347.779","1334","359","-1098",,,,
"1701189347.78",,,,"1305","330","-1095",
"1701189347.86","1767","7","-1757",,,,
"1701189347.861",,,,"1743","17","-1734",
"1701189347.941","1305",,,,,,
"1701189347.942",,"53","-1459","1313","54","-1474",
"1701189348.02","1731","302",,,,,
"1701189348.021",,,"-1519","1705","291","-1506",
"1701189348.101","2312","602",,,,,
"1701189348.102",,,"-1991","2285","582","-1979",
"1701189348.182","2254","252",,,,,
"1701189348.183",,,"-2423","2282","250","-2426",
"1701189348.264","1450","149","-1413","1497","157","-1465",
"1701189348.345","858","886","-678","873","833","-697",
"1701189348.423","1572","1023",,,,,
"1701189348.424",,,"-1367","1524","1003","-1337",
"1701189348.505","1046",,,,,,
"1701189348.506",,"854","-727","1058","865","-757",
"1701189348.586","1133",,,,,,
"1701189348.587",,"1068","-736","1118","1063","-726",
"1701189348.666","1082","843","-173","1082","843","-207",
"1701189348.747","1648","1002","-247","1601","984","-240",
"1701189348.825","1805","996",,,,,
"1701189348.826",,,"-43","1788","988","-53",
"1701189348.907","1994","878","310","1974","867","283",
"1701189348.988","1865","765","540","1877","758","509",
"1701189349.068","1965","755","407","1944","757","409",
"1701189349.148","1888","766",,,,,
"1701189349.149",,,"-4","1877","769","24",
"1701189349.23","1468","923","26","1492","914","19",
"1701189349.31","1550","1098","-153","1539",,,
"1701189349.311",,,,,"1097","-147",
"1701189349.392","1758","1072","-500","1734","1085","-479",
"1701189349.47","1774","1033","-1125",,,,
"1701189349.471",,,,"1792","1031","-1091",
"1701189349.551","1838","1336","-989","1852",,,
"1701189349.552",,,,,"1323","-1005",
"1701189349.632","2416",,,,,,
"1701189349.633",,"1296","-173","2360","1286","-220",
"1701189349.714","2064","1079","100","2067","1082","89",
"1701189349.793","640","462","-294",,,,
"1701189349.794",,,,"706","482","-281",
"1701189349.874","1172",,,,,,
"1701189349.875",,"133","1290","1120","100","1162",
"1701189349.954","930",,,,,,
"1701189349.955",,"-77","1693","933","-65","1700",
"1701189350.035","124",,,,,,
"1701189350.036",,"-300","1975","125","-302","1960",
"1701189350.116","-102",,,,,,
"1701189350.117",,"-649","1806","-101","-641","1800",
"1701189350.197","-510","-672",,,,,
"1701189350.198",,,"2365","-480","-669","2347",
"1701189350.279","-618","-668","2477","-612","-678","2466",
"1701189350.358","356","-677","2173","320","-666","2188",
"1701189350.438","1259",,,,,,
"1701189350.439",,"-169","1796","1217","-199","1815",
"1701189350.519","1071",,,,,,
"1701189350.52",,"13","1746","1076","8","1734",
"1701189350.6","933","123","1789",,,,
"1701189350.601",,,,"935","113","1789",
"1701189350.681","1098",,,,,,
"1701189350.682",,"127","1458","1094","126","1482",
"1701189350.762","1498",,,,,,
"1701189350.763",,"342","1861","1472","324","1842",
"1701189350.844","980","62","1939","994","84","1957",
"1701189350.924","1036",,,,,,
"1701189350.925",,"-103","1857","1033","-96","1865",
"1701189351.005","1120",,,,,,
"1701189351.006",,"-134","1729","1115","-142","1716",
"1701189351.084","1056","-98","1613",,,,
"1701189351.085",,,,"1056","-104","1614",
"1701189351.165","1012",,,,,,
"1701189351.166",,"4","1673","1010","0","1667",
"1701189351.261","1135","31","1667","1123","22","1658",
"1701189351.326","1437","-55","1237","1413","-54","1241",
"1701189351.407","1645","223","1593","1630","211","1565",
"1701189351.487","1665",,,,,,
"1701189351.488",,"377","1548","1665","364","1536",
"1701189351.567","1804","304","802","1805","305","835",
"1701189351.648","1517","70","630","1518","81","628",
"1701189351.729","979","-340","1038","993","-307","1026",
"1701189351.809","1577",,,,,,
"1701189351.81",,"-562","1793","1566","-532","1767",
"1701189351.889","2719",,,,,,
"1701189351.89",,"-894","1968","2692","-882","1945",
"1701189351.971","1624","-115","1827","1693","-169","1809",
"1701189352.052","2874","896","1749","2799","853",,
"1701189352.053",,,,,,"1756",
"1701189352.132","3168",,,,,,
"1701189352.133",,"409","695","3155","438","747",
"1701189352.214","2512","-437","162","2537","-378","196",
"1701189352.296","2028","-567","-411","2035","-541","-363",
"1701189352.374","1566",,,,,,
"1701189352.375",,"-32","-721","1570","-49","-702",
"1701189352.455","378",,,,,,
"1701189352.456",,"185","-467","428","158","-510",
"1701189352.537","643","503","541","633","512","507",
"1701189352.619","1990","1244","1255","1935",,,
"1701189352.62",,,,,"1206","1272",
"1701189352.698","2100","697","990","2063","728","1013",
"1701189352.778","947",,,,,,
"1701189352.779",,"-3","1066","1014","2","1039",
"1701189352.86","1418","-521","1702","1395","-488","1681",
"1701189352.94","1920","-373","1512","1874","-390","1542",
"1701189353.021","995","-34","1482","1035","-55","1473",
"1701189353.102","331","764","1227","367","710","1217",
"1701189353.18","1041",,,,,,
"1701189353.181",,"454","965","1002","449","956",
"1701189353.261","2051",,,,,,
"1701189353.262",,"-224","1290","1997","-218","1254",
"1701189353.35","2348",,,,,,
"1701189353.351",,"-943","1368","2335","-898","1401",
"1701189353.424","1911","-901","1624","1933","-904","1629",
"1701189353.504","1806",,,,,,
"1701189353.505",,"-900","1532","1792","-896","1530",
"1701189353.583","1504",,,,,,
"1701189353.584",,"-793","1398","1510","-786","1412",
"1701189353.666","1083","-929","1241","1103","-919","1252",
"1701189353.747","1089","-834","1481","1088","-840","1474",
"1701189353.827","1283",,,,,,
"1701189353.828",,"-801","1665","1275","-808","1655",
"1701189353.907","1536","-460","1973","1522","-481","1955",
"1701189353.987","1522",,,,,,
"1701189353.988",,"-473","1586","1510","-481","1596",
"1701189354.068","1588",,,,,,
"1701189354.069",,"-412","1254","1574","-412","1258",
"1701189354.149","1196","-610","1025","1204","-605",,
"1701189354.15",,,,,,"1022",
"1701189354.229","945",,,,,,
"1701189354.23",,"-244","1361","973","-256","1349",
"1701189354.31","967",,,,,,
"1701189354.311",,"-251","1477","964","-236","1469",
"1701189354.391","784",,,,,,
"1701189354.392",,"-139","1512","791","-149","1505",
"1701189354.472","949","-2","1520","926","-2","1515",
"1701189354.553","1425","-228","1558","1380","-194","1549",
"1701189354.633","1048",,,,,,
"1701189354.634",,"-246","1337","1057","-233","1355",
"1701189354.712","667",,,,,,
"1701189354.713",,"-192","1549","682","-206","1544",
"1701189354.794","813","-244","1570","795","-235",,
"1701189354.795",,,,,,"1565",
"1701189354.874","618",,,,,,
"1701189354.875",,"-156","1802","627","-148","1805",
"1701189354.955","749",,,,,,
"1701189354.956",,"-154","2423","723","-140","2408",
"1701189355.037","188","-224","2108","197","-193","2136",
"1701189355.116","-80",,,,,,
"1701189355.117",,"-709","2358","-98","-667","2310",
"1701189355.197","-540",,,,,,
"1701189355.198",,"158","2694","-545","74","2656",
"1701189355.278","-237",,,,,,
"1701189355.279",,"-719","2164","-248","-691","2205",
"1701189355.36","-580","-1050","1969","-555","-1038","2001",
"1701189355.441","-1163","-290","1751","-1157","-349","1740",
"1701189355.522","-924","-456","1589","-923","-455","1597",
"1701189355.603","-903","-462","1652","-938","-446","1642",
"1701189355.683","-815",,,,,,
"1701189355.684",,"-284","1455","-825","-298","1454",
"1701189355.765","-295","477","268","-310","436",,
"1701189355.766",,,,,,"320",
"1701189355.845","-82","1357","337","-100","1341","332",
"1701189355.928","-1301","3409","1170","-1096","3339","1099",
"1701189356.009","-335","2762","745","-398","2714","773",
"1701189356.091","-178","2179","819","-176","2173","831",
"1701189356.169","-266","1877","858","-273","1883","848",
"1701189356.25","-225","1842","871","-230","1841","865",
"1701189356.329","-225","1840","871","-225","1839",,
"1701189356.33",,,,,,"865",
"1701189356.408","-225",,,,,,
"1701189356.409",,"1840","870","-225","1839","865",
"1701189356.489","-225","1841","874","-225","1839","866",
"1701189356.57","-225","1840","876","-225","1839","868",
"1701189356.652","-225","1840","874","-225","1839","869",
"1701189356.733","-225","1838","875","-223","1838","869",
"1701189356.813","-219","1836","873","-224","1833","868",
"1701189356.894","-210","1840","874","-221","1834","868",
"1701189356.988","-223","1840","871","-221","1834","868",
"1701189357.055","-224",,,,,,
"1701189357.056",,"1840","874","-221","1834","868",
"1701189357.135","-225","1838","871","-221","1834","868",
"1701189357.215","-225","1840","873","-221","1834","868",
"1701189357.294","-222","1841","872","-221","1834","868",
"1701189357.377","-225","1838","871","-221","1834",,
"1701189357.378",,,,,,"868",
"1701189357.458","-225","1839","872","-221","1834","868",
"1701189357.538","-225","1840","872","-221","1834","868",
"1701189357.619","-225","1840","872","-221","1834","868",
"1701189357.7","-225","1841","873","-221","1834","868",
"1701189357.779","-222","1839","870","-221","1834","868",
"1701189357.859","-225","1840","872","-221","1834",,
"1701189357.86",,,,,,"868",
"1701189357.938","-225","1837","871","-221","1834","868",
"1701189358.032","-225","1837","873","-221","1834","868",
"1701189358.1","-225","1839","872","-221","1834",,
"1701189358.101",,,,,,"868",
"1701189358.18","-225",,,,,,
"1701189358.181",,"1838","874","-221","1834","868",
"1701189358.26","-225",,,,,,
"1701189358.261",,"1839","871","-221","1834","868",
"1701189358.342","-225","1839","873","-221","1834","868",
"1701189358.421","-225","1838","874","-221","1834","868",
"1701189358.501","-225",,,,,,
"1701189358.502",,"1838","875","-221","1834","868",
"1701189358.582","-225","1839","873","-221","1834","868",
"1701189358.661","-225","1839","872","-221","1834","868",
"1701189358.744","-223","1839","874","-221","1834","868",
"1701189358.824","-225","1839","870",,,,
"1701189358.825",,,,"-221","1834","868",
"1701189358.905","-225","1840","870","-221","1834","868",
"1701189358.986","-225","1838","872","-221","1834","868",
"1701189359.075","-225","1839","874","-221",,,
"1701189359.076",,,,,"1834","868",
"1701189359.145","-225",,,,,,
"1701189359.146",,"1840","874","-221","1834","868",
"1701189359.225","-225","1840","873","-221","1834","868",
"1701189359.306","-225","1840","872","-221","1834","868",
"1701189359.386","-225","1840","871","-221","1834","868",
"1701189359.467","-225","1838","872","-221","1834","868",
"1701189359.548","-225","1839","874","-221",,,
"1701189359.549",,,,,"1834","868",
"1701189359.628","-214","1838","872","-221","1834","868",
"1701189359.709","-225","1840","873","-221","1834","868",
"1701189359.79","-225","1839","873","-221","1834","868",
"1701189359.869","-225","1838","876","-221","1834","868",
"1701189359.95","-225","1841","875","-221","1834","868",
"1701189360.03","-223",,,,,,
"1701189360.031",,"1841","872","-221","1836","867",
"1701189360.117","-210","1856","878","-216","1845","875",
"1701189360.194","-210","1844","872","-215","1839","867",
"1701189360.275","-210","1842","868","-215","1839","865",
"1701189360.356","-210","1843","870","-213","1839",,
"1701189360.357",,,,,,"865",
"1701189360.437","-210","1842","869","-213","1839","865",
"1701189360.516","-210","1843","870","-213","1839","865",
"1701189360.597","-210","1843","870","-213","1839","865",
"1701189360.677","-210",,,,,,
"1701189360.678",,"1843","871","-213","1839","865",
"1701189360.759","-210","1841","870","-213","1839","865",
"1701189360.84","-210","1841","868","-213","1839","865",
"1701189360.919","-210","1842","870","-213","1839","865",
"1701189361","-210","1842","870","-213","1839","865",
"1701189361.081","-210","1843","870","-213","1839","865",
"1701189361.168","-210","1841","871","-213","1839",,
"1701189361.169",,,,,,"865",
"1701189361.242","-210","1842","871","-213","1839","865",
"1701189361.323","-210","1842","870","-213","1839","865",
"1701189361.404","-210","1844","870","-213","1839","865",
"1701189361.485","-201","1843","869","-207","1838","864",
"1701189361.566","-212","1842","862","-216","1838","862",
"1701189361.645","-210","1843","868","-210","1836","866",
"1701189361.726","-210","1840","877",,,,
"1701189361.727",,,,"-214","1836","871",
"1701189361.807","-210","1824","823","-210","1824","829",
"1701189361.887","-244","1858","921","-245","1855","918",
"1701189361.968","-97","2139","888","-117","2107","876",
"1701189362.049","432","1821","375","374","1838","365",
"1701189362.131","299","2218",,,,,
"1701189362.132",,,"412","296","2273","408",
"1701189362.213","55","2292","132","95","2268","161",
"1701189362.291","315","1987","272","298","2010","255",
"1701189362.372","631","1882","251","593","1901","244",
"1701189362.453","-28","2014","263","0","2021","259",
"1701189362.534","0","2083","333","0","2071","328",
"1701189362.614","-153","2032","332","-142","2032","324",
"1701189362.695","-77","2030","384","-75","2032","384",
"1701189362.776","-30","1942","425","-30","1948","434",
"1701189362.857","7","2181","323",,,,
"1701189362.858",,,,"3","2174","323",
"1701189362.938","45","2020","302","38","2034","301",
"1701189363.019","46","1990","304","43","1982","298",
"1701189363.099","24","1828","272","22","1825","271",
"1701189363.18","21","2010","295","19","1995","287",
"1701189363.261","35","1997","302","32","1996","293",
"1701189363.342","31","1824","271","28","1832","269",
"1701189363.421","3","1773","260","1","1776","255",
"1701189363.502","31","1902","263","23","1883","256",
"1701189363.583","23","2004","270","19","1976","264",
"1701189363.662","0","1952","272","0","1955","270",
"1701189363.743","54","2184","324","46","2175","316",
"1701189363.822","41","2323","345","35","2310","339",
"1701189363.903","-9","2146","307","-13","2155","306",
"1701189363.982","0",,,,,,
"1701189363.983",,"2141","302","-2","2143","298",
"1701189364.063","44","1977","263","36",,,
"1701189364.064",,,,,"1976","260",
"1701189364.144","25","2047","263","22","2036","260",
"1701189364.226","35","2036","279","27","2036","274",
"1701189364.305","34","1960","279","27","1961","279",
"1701189364.386","40","2227",,,,,
"1701189364.387",,,"328","33","2204","320",
"1701189364.466","11","2221","330","8","2207",,
"1701189364.467",,,,,,"323",
"1701189364.547","5","1975","297","2","1981","291",
"1701189364.628","13","2038","276","6","2022","274",
"1701189364.707","6","1880","239","5","1891","239",
"1701189364.802","8",,,,,,
"1701189364.803",,"1932","243","5","1928","238",
"1701189364.869","13","2237","316","11","2220","307",
"1701189364.95","32","2231","331","28","2220","326",
"1701189365.031","36","1876","289","31","1893","291",
"1701189365.111","5","1810","275","0","1808","273",
"1701189365.191","0","2106","312","0","2092","305",
"1701189365.271","-1","1941","273","0","1946","270",
"1701189365.352","38","2391","291","32","2351","283",
"1701189365.431","8","2027","256","8","2041","255",
"1701189365.512","16","1778","239","9","1774","237",
"1701189365.593","13","2135","314","10","2113","306",
"1701189365.673","17","2473","357","9","2450","348",
"1701189365.752","22","2425",,,,,
"1701189365.753",,,"357","17","2426","352",
"1701189365.844","34","2045","285","28","2054","286",
"1701189365.914","27","2170","249","27","2161","248",
"1701189365.995","25","2504","299","21","2483","291",
"1701189366.074","0","2122","272","-3","2138","267",
"1701189366.155","0","1884",,,,,
"1701189366.156",,,"265","0","1890","262",
"1701189366.237","8","2168","324","5","2150","315",
"1701189366.317","0","2232","324","0","2227","320",
"1701189366.398","32","2075","298","24",,,
"1701189366.399",,,,,"2083","293",
"1701189366.48","35","2105","278","33","2084","273",
"1701189366.559","31","2082","265","30","2079","263",
"1701189366.64","15","2194","294","12","2189","288",
"1701189366.721","-15","2250","318","-16","2239","312",
"1701189366.8","0","2247","324","0","2262","322",
"1701189366.894","16","1891","274","9","1908","271",
"1701189366.962","1196","2071","385","1110","2039","360",
"1701189367.043","832","1953",,,,,
"1701189367.044",,,"200","855","1954","194",
"1701189367.125","702","1809","232","719","1799","233",
"1701189367.204","1113","1252","355","1166","1291","351",
"1701189367.285","1288","1644","392","1259",,,
"1701189367.286",,,,,"1657","402",
"1701189367.365","1843","1643","797","1776","1627","786",
"1701189367.446","1302","1495","534","1341","1488","526",
"1701189367.526","2310","1230","331","2258","1229","340",
"1701189367.607","1214","577","1156",,,,
"1701189367.608",,,,"1253","620","1089",
"1701189367.687","697","445","1306","707","445","1305",
"1701189367.766","408","618","1070","424","619","1073",
"1701189367.847","1305","1199","811",,,,
"1701189367.848",,,,"1226","1171","827",
"1701189367.929","2231","1386","626","2167","1370","629",
"1701189368.008","2560","806","941",,,,
"1701189368.009",,,,"2549","842","873",
"1701189368.089","2111","784","459","2097","775","502",
"1701189368.17","1655","1605","234","1655","1565","259",
"1701189368.249","2110","1560","-88","2081","1573","-99",
"1701189368.33","1724","678","87","1749",,,
"1701189368.331",,,,,"722","60",
"1701189368.412","1677","281","721","1670",,,
"1701189368.413",,,,,"281","683",
"1701189368.492","1622","1634","-608","1597","1581","-545",
"1701189368.574","1478","1536","460","1482","1545","433",
"1701189368.653","2033","1278","288","2027","1258","302",
"1701189368.734","1983","1094","202","1964",,,
"1701189368.735",,,,,"1083","211",
"1701189368.815","1482","858","-174","1515","862","-151",
"1701189368.896","1741","1080","632",,,,
"1701189368.897",,,,"1766","1070","526",
"1701189368.977","1979","1309","433","1970","1303","422",
"1701189369.058","1912","1086","159",,,,
"1701189369.059",,,,"1921","1095","157",
"1701189369.137","1871","86","13","1893","136","31",
"1701189369.221","1604","230","92","1623","219","83",
"1701189369.297","1745","548","124","1728",,,
"1701189369.298",,,,,"530","119",
"1701189369.378","1343","701","192","1384","689","185",
"1701189369.459","2645","1023","70","2568","1004",,
"1701189369.46",,,,,,"96",
"1701189369.54","1025","271","501","1191","324","472",
"1701189369.622","1584","1282","356","1622","1229","284",
"1701189369.701","1489","1911","170","1473","1883",,
"1701189369.702",,,,,,"168",
"1701189369.782","821","1423","236","862","1451","224",
"1701189369.863","1284","1871","329","1225","1844","298",
"1701189369.944","1425","1853","184","1416","1859","183",
"1701189370.025","1211","1721","402","1182","1716",,
"1701189370.026",,,,,,"372",
"1701189370.104","1142","1389","97","1136",,,
"1701189370.105",,,,,"1415","104",
"1701189370.185","1603",,,,,,
"1701189370.186",,"1281","523","1594","1240","495",
"1701189370.266","1771","1837","377","1803","1807","384",
"1701189370.347","467","1989","-156","494","1942",,
"1701189370.348",,,,,,"-172",
"1701189370.428","401","2238","-232","389","2204",,
"1701189370.429",,,,,,"-245",
"1701189370.522","1504","1837","438","1451",,,
"1701189370.523",,,,,"1861","356",
"1701189370.59","1479","845","20","1495","877","49",
"1701189370.669","1352","1451","240","1324","1394","212",
"1701189370.75","-556","2509","73","-522","2464","62",
"1701189370.831","-392","1912","175","-411","1963","175",
"1701189370.912","422","2006","-303","412",,,
"1701189370.913",,,,,"1955","-263",
"1701189370.993","1330","1942","708","1320","1950","645",
"1701189371.074","-400","1939","-48","-355","1940","-11",
"1701189371.154","-200","1965","226","-242","1943",,
"1701189371.155",,,,,,"214",
"1701189371.235","422","2078","272","386","2055","267",
"1701189371.315","723","1940","288","715","1946","304",
"1701189371.396","545","1548","276","538","1578","270",
"1701189371.475","325","2030","253","267","2134","277",
"1701189371.557","641","1862","197","620","1869","220",
"1701189371.636","434",,,,,,
"1701189371.637",,"2008","322","451","2004","318",
"1701189371.717","201","2071","251","203","2070","246",
"1701189371.798","527","2012","329","491","2002","315",
"1701189371.878","746","1875","372","729","1875","361",
"1701189371.959","523",,,,,,
"1701189371.96",,"1963","340","533","1958","336",
"1701189372.039","389","1995","291","390","1992","290",
"1701189372.12","511","1946","308","502","1948","306",
"1701189372.2","560","1935","302","557","1931","302",
"1701189372.279","477","1991","294","477",,,
"1701189372.28",,,,,"1982","292",
"1701189372.36","381","2045",,,,,
"1701189372.361",,,"276","377","2036","274",
"1701189372.44","282","1995","245",,,,
"1701189372.441",,,,"284","1999","245",
"1701189372.521","433","1992","305","425","1989",,
"1701189372.522",,,,,,"301",
"1701189372.601","542","1921",,,,,
"1701189372.602",,,"312","537","1926","311",
"1701189372.68","483","1999","360","480","1983","352",
"1701189372.762","407","1952","310","410","1954","311",
"1701189372.841","462","1986",,,,,
"1701189372.842",,,"325","457","1978","318",
"1701189372.922","510","1978","317","502","1969","312",
"1701189373.002","498","1988","311","490",,,
"1701189373.003",,,,,"1979","306",
"1701189373.083","428","2018","317",,,,
"1701189373.084",,,,"419","2007","308",
"1701189373.164","474","1956","301","464","1956","300",
"1701189373.245","486","1981","304","479",,,
"1701189373.246",,,,,"1974","300",
"1701189373.327","432","2000","295","431","1995","294",
"1701189373.406","387","1996","289",,,,
"1701189373.407",,,,"386","1993","287",
"1701189373.488","448","1989","317","440","1985",,
"1701189373.489",,,,,,"312",
"1701189373.569","496","1975","312","488",,,
"1701189373.57",,,,,"1971","306",
"1701189373.648","475","1980","311","472",,,
"1701189373.649",,,,,"1976","306",
"1701189373.728","478","1974","308","469","1971","301",
"1701189373.808","453","1985",,,,,
"1701189373.809",,,"303","447","1979","301",
"1701189373.889","454","1983","295","448","1979",,
"1701189373.89",,,,,,"291",
"1701189373.97","453","1980","302","448",,,
"1701189373.971",,,,,"1979","298",
"1701189374.052","477","1978","311","469","1978",,
"1701189374.053",,,,,,"303",
"1701189374.138","457","1978","313","452","1975","306",
"1701189374.211","485","1978","307","477","1974","305",
"1701189374.291","501","1958","316","497","1958","313",
"1701189374.37","481","1986","315","479","1980","315",
"1701189374.452","447","1979","293","443","1975","290",
"1701189374.531","444","1987","296","440","1981",,
"1701189374.532",,,,,,"292",
"1701189374.613","458",,,,,,
"1701189374.614",,"1979","303","452","1975","297",
"1701189374.692","474","1971","319","466","1966","313",
"1701189374.772","494","1980","321","487","1976","313",
"1701189374.853","481",,,,,,
"1701189374.854",,"1979","310","477","1973","307",
"1701189374.933","476",,,,,,
"1701189374.934",,"1971","290","476","1968","287",
"1701189375.012","479","1976","294","476","1973","290",
"1701189375.094","468","1973","301","464","1967","298",
"1701189375.177","477","1961","307","472","1958","300",
"1701189375.255","475","1986","312","471","1979",,
"1701189375.256",,,,,,"305",
"1701189375.334","476","1989","303","472","1982","298",
"1701189375.414","502","1976","311",,,,
"1701189375.415",,,,"497","1974","305",
"1701189375.494","522","1981","313","515",,,
"1701189375.495",,,,,"1975","307",
"1701189375.575","457","1978","288","458","1977",,
"1701189375.576",,,,,,"286",
"1701189375.654","435","1968","281","433","1961","274",
"1701189375.736","450","1987","299","443","1981","295",
"1701189375.815","449","2011","306","443","2001",,
"1701189375.816",,,,,,"301",
"1701189375.896","451","1979","290","445",,,
"1701189375.897",,,,,"1971","287",
"1701189375.978","490","1978","306","485","1977","304",
"1701189376.059","439",,,,,,
"1701189376.06",,"1923","263","437","1921","263",
"1701189376.14","473","2027","271","465","2017","269",
"1701189376.22","459","1995","301","457","1992",,
"1701189376.221",,,,,,"294",
"1701189376.3","476","1975","318",,,,
"1701189376.301",,,,"475","1974","314",
"1701189376.38","529","1940","336","519","1938","332",
"1701189376.461","562","1944","340",,,,
"1701189376.462",,,,"557","1936","336",
"1701189376.54","463",,,,,,
"1701189376.541",,"1974","299","461","1968","297",
"1701189376.622","432","2001","263",,,,
"1701189376.623",,,,"432","1992","263",
"1701189376.703","463","1999","251","456",,,
"1701189376.704",,,,,"1992","248",
"1701189376.782","530","1982","269",,,,
"1701189376.783",,,,"521","1976","262",
"1701189376.863","529","1976","276","526","1970","272",
"1701189376.941","491","1981","271",,,,
"1701189376.942",,,,"487","1973","271",
"1701189377.022","477","1981","278","471","1974","274",
"1701189377.103","475",,,,,,
"1701189377.104",,"1979","290","471","1976","283",
"1701189377.183","470","1974","282","467","1973","281",
"1701189377.263","472","1982","273","467","1976",,
"1701189377.264",,,,,,"271",
"1701189377.344","485","1987","271","478",,,
"1701189377.345",,,,,"1979","267",
"1701189377.425","489","1981","268",,,,
"1701189377.426",,,,"483","1975","266",
"1701189377.506","487","1982","275","484","1975","269",
"1701189377.586","504","1972","275","498","1970",,
"1701189377.587",,,,,,"270",
"1701189377.665","513","1969","277","508","1966",,
"1701189377.666",,,,,,"272",
"1701189377.747","510","1974","279","507","1967","276",
"1701189377.827","496","1989","279","491","1981","274",
"1701189377.907","487","1980","257","483","1977","255",
"1701189377.987","482","1978","259","481","1975",,
"1701189377.988",,,,,,"255",
"1701189378.069","483","1981","254","477","1976","253",
"1701189378.15","481","1984","254","480","1980","251",
"1701189378.23","500","1980","255","494","1975",,
"1701189378.231",,,,,,"247",
"1701189378.311","491","1983","251","487","1976",,
"1701189378.312",,,,,,"247",
"1701189378.39","486","1986","257","481","1977","250",
"1701189378.471","487",,,,,,
"1701189378.472",,"1978","257","483","1978","250",
"1701189378.552","500","1979","257","493",,,
"1701189378.553",,,,,"1978","252",
"1701189378.633","492",,,,,,
"1701189378.634",,"1979","253","488","1975","250",
"1701189378.715","474",,,,,,
"1701189378.716",,"1989","249","470","1981","248",
"1701189378.796","487","1980","253","481",,,
"1701189378.797",,,,,"1979","248",
"1701189378.875","495",,,,,,
"1701189378.876",,"1982","265","487","1979","258",
"1701189378.955","489","1978","256","486","1977",,
"1701189378.956",,,,,,"251",
"1701189379.036","479","1989","248","477","1982","245",
"1701189379.118","473","1983","252","472","1983","246",
"1701189379.196","471","1987",,,,,
"1701189379.197",,,"259","470","1983","252",
"1701189379.278","494",,,,,,
"1701189379.279",,"1979","267","488","1978","262",
"1701189379.358","475","1974","271","474","1974","265",
"1701189379.438","461","1989","266","457","1985","265",
"1701189379.519","476","1987","261","469","1980",,
"1701189379.52",,,,,,"258",
"1701189379.599","480",,,,,,
"1701189379.6",,"1976","258","476","1974","256",
"1701189379.681","499","1989","279","495","1982","275",
"1701189379.761","506","1966","269","502","1965","267",
"1701189379.841","530","1977","259","524","1969",,
"1701189379.842",,,,,,"256",
"1701189379.92","477","1993",,,,,
"1701189379.921",,,"251","476","1988","247",
"1701189380.001","438","1985","256",,,,
"1701189380.002",,,,"434","1984","252",
"1701189380.083","462","1986",,,,,
"1701189380.084",,,"281","459","1985","278",
"1701189380.162","474","1983",,,,,
"1701189380.163",,,"284","469","1980","279",
"1701189380.244","512","1948","278","508",,,
"1701189380.245",,,,,"1947","277",
"1701189380.323","487","1964","280","489","1961","276",
"1701189380.404","489","1982","282","490","1973","281",
"1701189380.483","491","1979","277","487",,,
"1701189380.484",,,,,"1975","272",
"1701189380.564","484",,,,,,
"1701189380.565",,"1990","260","481","1989","254",
"1701189380.643","480",,,,,,
"1701189380.644",,"1991","248","477","1983","242",
"1701189380.724","474","1983",,,,,
"1701189380.725",,,"256","472","1980","252",
"1701189380.805","476","1980","279","473","1974",,
"1701189380.806",,,,,,"276",
"1701189380.887","544","1964","312",,,,
"1701189380.888",,,,"533","1959","307",
"1701189380.966","517","1959","289","512",,,
"1701189380.967",,,,,"1958","287",
"1701189381.046","524",,,,,,
"1701189381.047",,"1986","263","517","1980","262",
"1701189381.128","501","1982","262","497","1981","257",
"1701189381.208","464","1987","234",,,,
"1701189381.209",,,,"460","1984","231",
"1701189381.287","427","2000","236","426",,,
"1701189381.288",,,,,"1996","234",
"1701189381.368","426","2004","257","423","1997",,
"1701189381.369",,,,,,"252",
"1701189381.45","460","2006",,,,,
"1701189381.451",,,"267","453","2001","262",
"1701189381.529","397",,,,,,
"1701189381.53",,"2082","288","394","2072","283",
"1701189381.612","475","1976","415","462","1977","403",
"1701189381.69","502","1930","466","501","1925","465",
"1701189381.771","289","1907","601","292","1899","587",
"1701189381.852","465","1943","685","455","1938","680",
"1701189381.932","256","1799","515","270","1801","517",
"1701189382.012","128","1839","507",,,,
"1701189382.013",,,,"131","1837","520",
"1701189382.093","258","1883","611","242","1877","594",
"1701189382.172","386","2064","563","377",,,
"1701189382.173",,,,,"2048","556",
"1701189382.252","600","2065",,,,,
"1701189382.253",,,"543","584","2061","542",
"1701189382.333","513",,,,,,
"1701189382.334",,"1860","413","507","1863","407",
"1701189382.414","722","1891","372","706","1883","371",
"1701189382.494","652","1932","368",,,,
"1701189382.495",,,,"651","1929","371",
"1701189382.574","571",,,,,,
"1701189382.575",,"1961","414","562","1946","406",
"1701189382.655","651","1964","438","635",,,
"1701189382.656",,,,,"1950","422",
"1701189382.735","793","1837","499","774","1831",,
"1701189382.736",,,,,,"485",
"1701189382.814","827","1795","545",,,,
"1701189382.815",,,,"823","1793","535",
"1701189382.896","933","1859","624","921",,,
"1701189382.897",,,,,"1847","610",
"1701189382.977","669","1878",,,,,
"1701189382.978",,,"458","681","1875","461",
"1701189383.056","671",,,,,,
"1701189383.057",,"1971","368","667","1962","370",
"1701189383.136","686","1896","328",,,,
"1701189383.137",,,,"680","1894","327",
"1701189383.215","891","1806",,,,,
"1701189383.216",,,"319","879","1805","316",
"1701189383.297","984",,,,,,
"1701189383.298",,"1815","349","974","1806","344",
"1701189383.379","698","1861","360","711","1858","354",
"1701189383.458","716",,,,,,
"1701189383.459",,"1882","400","710","1879","392",
"1701189383.537","776","1848","425","775","1846",,
"1701189383.538",,,,,,"416",
"1701189383.618","1004",,,,,,
"1701189383.619",,"1823","488","988","1818","479",
"1701189383.701","986","1809","461","977","1802","459",
"1701189383.779","749","1879","465",,,,
"1701189383.78",,,,"754","1874","461",
"1701189383.861","659","1912","403","661","1908","402",
"1701189383.94","874",,,,,,
"1701189383.941",,"1816","390","858","1817","387",
"1701189384.019","911","1798","478","909",,,
"1701189384.02",,,,,"1796","471",
"1701189384.102","769","1843","457","771","1840","455",
"1701189384.18","775","1925","305",,,,
"1701189384.181",,,,"770","1914","308",
"1701189384.261","600","1985","264","601",,,
"1701189384.262",,,,,"1975","263",
"1701189384.343","490",,,,,,
"1701189384.344",,"1929","316","484","1929","311",
"1701189384.423","509",,,,,,
"1701189384.424",,"1989","387","502","1977","381",
"1701189384.502","587","1985","432",,,,
"1701189384.503",,,,"575","1975","423",
"1701189384.582","580","1928","485","578",,,
"1701189384.583",,,,,"1924","474",
"1701189384.663","427","1971","410",,,,
"1701189384.664",,,,"435","1967","411",
"1701189384.744","348","1890","376","347","1890","377",
"1701189384.823","224","1948","322","228","1941",,
"1701189384.824",,,,,,"320",
"1701189384.904","392","1999","413","373","1994","410",
"1701189384.983","481","1968","452","475",,,
"1701189384.984",,,,,"1968","449",
"1701189385.064","548","1997","517","545","1989",,
"1701189385.065",,,,,,"506",
"1701189385.146","408","1928","335","408","1925","341",
"1701189385.226","405","1867","333","399","1870","328",
"1701189385.306","423",,,,,,
"1701189385.307",,"2060","350","420","2045","343",
"1701189385.385","427",,,,,,
"1701189385.386",,"1981","325","424","1980","322",
"1701189385.466","517",,,,,,
"1701189385.467",,"1957","323","507","1955","321",
"1701189385.548","485","2008","344",,,,
"1701189385.549",,,,"481","2002","341",
"1701189385.63","409","1991",,,,,
"1701189385.631",,,"309","408","1989","305",
"1701189385.708","336",,,,,,
"1701189385.709",,"2017","226","338","2011","225",
"1701189385.79","313","2074",,,,,
"1701189385.791",,,"157","311","2065","156",
"1701189385.87","579","1923","195","559","1926","186",
"1701189385.95","682",,,,,,
"1701189385.951",,"1929","355","675","1921","343",
"1701189386.029","526",,,,,,
"1701189386.03",,"1958","379","530","1952","375",
"1701189386.111","499",,,,,,
"1701189386.112",,"1974","334","495","1970","330",
"1701189386.191","449","1977","271","448","1970",,
"1701189386.192",,,,,,"269",
"1701189386.27","466","1978","264",,,,
"1701189386.271",,,,"462","1978","258",
"1701189386.352","558","1950",,,,,
"1701189386.353",,,"250","553","1949","248",
"1701189386.432","453","1997","227",,,,
"1701189386.433",,,,"458","1991","227",
"1701189386.514","405",,,,,,
"1701189386.515",,"2010","230","402","2005","229",
"1701189386.593","485",,,,,,
"1701189386.594",,"1985","277","475","1983","272",
"1701189386.672","525","1968","278","519","1966",,
"1701189386.673",,,,,,"271",
"1701189386.754","458","1978","250","459",,,
"1701189386.755",,,,,"1972","248",
"1701189386.834","416",,,,,,
"1701189386.835",,"2038","229","415","2034","225",
"1701189386.915","443",,,,,,
"1701189386.916",,"2008","239","434","2002","233",
"1701189386.996","438",,,,,,
"1701189386.997",,"1986","185","432","1983","183",
"1701189387.077","429","2029","163",,,,
"1701189387.078",,,,"422","2021","160",
"1701189387.16","445","1993","163","440","1990","158",
"1701189387.238","496","1999",,,,,
"1701189387.239",,,"195","490","1994","189",
"1701189387.319","390","2008",,,,,
"1701189387.32",,,"178","391","2005","175",
"1701189387.399","328","2019","153","327","2014","152",
"1701189387.479","471","1992","202",,,,
"1701189387.48",,,,"459","1990","197",
"1701189387.561","533","1969","239","527","1968","232",
"1701189387.641","571",,,,,,
"1701189387.642",,"1962","180","565","1959","180",
"1701189387.721","334","2020","175","342","2010","168",
"1701189387.802","219","2090","210","220","2082","201",
"1701189387.883","344","2029","237","338","2024","233",
"1701189387.963","550",,,,,,
"1701189387.964",,"1951","241","541","1953","237",
"1701189388.044","593",,,,,,
"1701189388.045",,"1935","259","591","1933","251",
"1701189388.126","579","1951","253","575","1948","248",
"1701189388.218","490","1977","238","492","1975","238",
"1701189388.317","378","2031","210",,,,
"1701189388.318",,,,"383","2025","210",
"1701189388.366","418",,,,,,
"1701189388.367",,"2007","194","409","2005","195",
"1701189388.447","428",,,,,,
"1701189388.448",,"1986","228","420","1984","225",
"1701189388.526","412",,,,,,
"1701189388.527",,"1998","263","410","1995","259",
"1701189388.609","477","1983","293","468","1980","287",
"1701189388.687","449",,,,,,
"1701189388.688",,"1986","275","449","1980","273",
"1701189388.767","446",,,,,,
"1701189388.768",,"1979","267","441","1975","261",
"1701189388.847","457",,,,,,
"1701189388.848",,"1990","265","452","1988","264",
"1701189388.928","418",,,,,,
"1701189388.929",,"1990","271","418","1986","269",
"1701189389.008","439",,,,,,
"1701189389.009",,"1996","289","433","1990","282",
"1701189389.089","453",,,,,,
"1701189389.09",,"1963","316","449","1959","313",
"1701189389.168","456","1974",,,,,
"1701189389.169",,,"330","453","1971","326",
"1701189389.251","385",,,,,,
"1701189389.252",,"2001","318","385","1993","317",
"1701189389.329","481",,,,,,
"1701189389.33",,"1973","316","473","1967","310",
"1701189389.41","506","1980","293","502","1974","292",
"1701189389.491","472","1984","266","465","1976","265",
"1701189389.571","448","1990","268","447","1984","265",
"1701189389.65","423","1989","274","420","1988","266",
"1701189389.731","448",,,,,,
"1701189389.732",,"1991","294","443","1987","288",
"1701189389.81","446",,,,,,
"1701189389.811",,"1984","285","443","1982","282",
"1701189389.891","450",,,,,,
"1701189389.892",,"1984","289","444","1980","283",
"1701189389.973","440",,,,,,
"1701189389.974",,"1986","289","435","1981","284",
"1701189390.053","435","1988","296","432","1985","292",
"1701189390.133","474","1976","311","465","1972","303",
"1701189390.213","442",,,,,,
"1701189390.214",,"1984","297","438","1977","291",
"1701189390.293","434",,,,,,
"1701189390.294",,"1975","283","433","1972","283",
"1701189390.373","439","1998","300","436","1991","293",
"1701189390.454","430",,,,,,
"1701189390.455",,"1988","294","430","1985","292",
"1701189390.533","422",,,,,,
"1701189390.534",,"2019","273","421","2015","269",
"1701189390.614","409",,,,,,
"1701189390.615",,"1992","277","407","1990","269",
"1701189390.695","435","1969","280","428","1965","276",
"1701189390.775","467",,,,,,
"1701189390.776",,"1974","306","458","1967","300",
"1701189390.856","440",,,,,,
"1701189390.857",,"1991","296","435","1986","291",
"1701189390.936","412",,,,,,
"1701189390.937",,"1975","272","411","1974","272",
"1701189391.015","447",,,,,,
"1701189391.016",,"1998","278","443","1992","272",
"1701189391.097","429","1990",,,,,
"1701189391.098",,,"271","424","1988","269",
"1701189391.177","419","2010","261","416","2002","257",
"1701189391.257","425",,,,,,
"1701189391.258",,"1990","246","417","1989","245",
"1701189391.338","428",,,,,,
"1701189391.339",,"1998","239","423","1991","236",
"1701189391.42","408","1991","228","407","1989","228",
"1701189391.5","428",,,,,,
"1701189391.501",,"2014","258","421","2009","255",
"1701189391.582","436","1986","248","428","1984","246",
"1701189391.662","443",,,,,,
"1701189391.663",,"1991","241","434","1985","237",
"1701189391.744","409","2008","237","407","2000","232",
"1701189391.824","433","2006","249","428","2001","242",
"1701189391.904","453",,,,,,
"1701189391.905",,"1990","251","448","1990","246",
"1701189391.984","495","1968","274","486","1968","270",
"1701189392.064","471",,,,,,
"1701189392.065",,"1986","280","465","1983","273",
"1701189392.145","424","1993","275","421","1986","269",
"1701189392.226","424","1998","245","421","1995",,
"1701189392.227",,,,,,"245",
"1701189392.307","458","1986","267","451","1984",,
"1701189392.308",,,,,,"261",
"1701189392.387","462",,,,,,
"1701189392.388",,"1990","261","461","1987","258",
"1701189392.468","444","1986","254","442","1981","253",
"1701189392.548","444",,,,,,
"1701189392.549",,"1986","267","440","1982","263",
"1701189392.629","459","1992","280","454","1985","274",
"1701189392.708","469",,,,,,
"1701189392.709",,"1984","283","463","1980","277",
"1701189392.789","480",,,,,,
"1701189392.79",,"1976","267","473","1974","266",
"1701189392.884","451","1975","246","447","1970","245",
"1701189392.952","444","2000","249","442","1992","248",
"1701189393.032","420","2008","257","417","2002","252",
"1701189393.112","425",,,,,,
"1701189393.113",,"2022","209","418","2018","208",
"1701189393.193","418",,,,,,
"1701189393.194",,"1993","199","413","1987","192",
"1701189393.275","447","1997","243","439","1990","234",
"1701189393.354","493","2015","263","486","2009","259",
"1701189393.434","411",,,,,,
"1701189393.435",,"1988","238","412","1985","236",
"1701189393.516","510","1941","282","501","1940","276",
"1701189393.595","530",,,,,,
"1701189393.596",,"1959","329","529","1953","320",
"1701189393.677","505","1958","338","500","1954","333",
"1701189393.756","439",,,,,,
"1701189393.757",,"1998","334","434","1993","328",
"1701189393.837","355",,,,,,
"1701189393.838",,"2015","271","355","2013","271",
"1701189393.929","367","2082","58","356","2080","39",
"1701189393.998","773","1911","378","757","1906",,
"1701189393.999",,,,,,"382",
"1701189394.08","554","1945","219","555","1944","222",
"1701189394.158","575",,,,,,
"1701189394.159",,"1957","283","574","1952","276",
"1701189394.241","377","1977","247","388","1973","242",
"1701189394.321","307","2092","334","298","2076","321",
"1701189394.402","370","2021","205","363","2025","204",
"1701189394.483","546","1883","237","521","1895","227",
"1701189394.564","522","2029","228","517","2018","223",
"1701189394.643","461","2007","270","452","2001","267",
"1701189394.725","340","2012","217","348","2011","212",
"1701189394.805","317","2015","240","322","2006",,
"1701189394.806",,,,,,"214",
"1701189394.887","426","1974","280","415","1979","268",
"1701189394.968","433","2018","224","427","2009","223",
"1701189395.047","388","1996","187","395","1998","183",
"1701189395.128","429","2036","272","426","2030","261",
"1701189395.208","439",,,,,,
"1701189395.209",,"1999","208","432","1994","206",
"1701189395.29","340","1960","185","337","1963","185",
"1701189395.371","417","2008","236","408","2002","230",
"1701189395.451","383","2010","281","377","2005","276",
"1701189395.53","318",,,,,,
"1701189395.531",,"1902","-265","330","1901","-219",
"1701189395.612","458",,,,,,
"1701189395.613",,"2022","245","458","2019","263",
"1701189395.694","459","2001","257","458","1996","248",
"1701189395.775","472","2002","23","458","2002","46",
"1701189395.856","400","2044","299","393","2047","289",
"1701189395.937","261","1880","182","278","1889","178",
"1701189396.017","415",,,,,,
"1701189396.018",,"2046","244","413","2028","232",
"1701189396.099","479","2016","128","470","2011","135",
"1701189396.178","433","1975","203","436","1973","193",
"1701189396.259","508","2039","234","499","2030","225",
"1701189396.34","473","1975","143","464","1975","142",
"1701189396.422","404","2021","158","405","2014","150",
"1701189396.503","535","1991","147","518","1988","143",
"1701189396.582","559","1982","187","554","1979","180",
"1701189396.663","486","1976","215","487","1975","207",
"1701189396.744","448","1987","230","447","1981","221",
"1701189396.825","457","1992","268","452","1985","264",
"1701189396.905","455","1958","346","447","1961","336",
"1701189396.986","617","1927","151","602","1932","160",
"1701189397.068","438","2009",,,,,
"1701189397.069",,,"185","457","1995","181",
"1701189397.147","417",,,,,,
"1701189397.148",,"2024","222","417","2017","214",
"1701189397.229","465","1997","240","458","1990","231",
"1701189397.308","536","2026","239","529",,,
"1701189397.309",,,,,"2016","232",
"1701189397.389","399","1972","187","384","1963","187",
"1701189397.47","193","2027","215","214","2014","203",
"1701189397.551","346","2034","287","336","2037","275",
"1701189397.632","143","1990","305","163","1989","288",
"1701189397.713","114","1981","262","127","1979","244",
"1701189397.794","245","2180","511","201","2171","493",
"1701189397.873","608","2067","764","586","2094","758",
"1701189397.955","575","1758","407","598","1781","417",
"1701189398.034","-88","1713","495",,,,
"1701189398.035",,,,"-73","1714","478",
"1701189398.114","-71","1816","69","-65","1813","97",
"1701189398.195","-52","2011","538","-70","1992","546",
"1701189398.274","-234","2021","657","-235","2010","642",
"1701189398.355","-55","2035","603","-65","2039","616",
"1701189398.434","793","2219","217","732","2234","262",
"1701189398.516","977","2007","205","953","1997","201",
"1701189398.596","406","1480","6","471","1550","18",
"1701189398.678","712","2002","447","713","1987","413",
"1701189398.757","293","2174","490","308","2155","492",
"1701189398.838","185","2198","443","181","2191","461",
"1701189398.919","863","1960","285","849","1971","250",
"1701189399","890","1578","148","904","1586","133",
"1701189399.079","-512","1940","480","-441","1892","464",
"1701189399.16","1008","1843","191",,,,
"1701189399.161",,,,"902","1823","192",
"1701189399.242","961","2234","603","969","2169","584",
"1701189399.321","553","1894","853","537","1902","821",
"1701189399.402","937","2095","494","861","2048","508",
"1701189399.482","911",,,,,,
"1701189399.483",,"1852","469","891","1848","465",
"1701189399.563","915","1863","468","908","1858","462",
"1701189399.644","963","1795","418","952","1790","416",
"1701189399.724","901","1777","399",,,,
"1701189399.725",,,,"906","1774","396",
"1701189399.805","996","1722","348","987","1722","348",
"1701189399.884","931","1819","360","930",,,
"1701189399.885",,,,,"1814","358",
"1701189399.966","876","1957","340","872","1943","336",
"1701189400.045","918","1851","314","912","1854","311",
"1701189400.126","1031","1719","309","1023","1724","303",
"1701189400.207","981","1705","313","990","1708","308",
"1701189400.287","1041","1787",,,,,
"1701189400.288",,,"373","1031","1785","370",
"1701189400.368","913","1796","391","924","1790","386",
"1701189400.448","849","1827","423","842","1819","417",
"1701189400.527","892","1779","408","884","1779","406",
"1701189400.609","809","1822","453",,,,
"1701189400.61",,,,"808","1817","448",
"1701189400.69","757","1858","484","754","1852","480",
"1701189400.771","683","1922","500","677","1914","498",
"1701189400.85","392","1915",,,,,
"1701189400.851",,,"576","402","1913","571",
"1701189400.931","414","1938","730","412","1933","717",
"1701189401.011","579","1885","724","576","1885","717",
"1701189401.092","657","1661","512","633","1663","520",
"1701189401.172","568","1792","673","574","1775","648",
"1701189401.253","492","2104","807","504",,,
"1701189401.254",,,,,"2080","789",
"1701189401.332","432","1790","568","416","1800","571",
"1701189401.414","867","1783","780","837","1776","756",
"1701189401.495","566","1847","764","577","1837","761",
"1701189401.574","440","1884","715","440","1880","714",
"1701189401.655","437","1928","688","433","1921","684",
"1701189401.748","437","1920","637","429","1912","634",
"1701189401.816","479","1881","648","472","1880","645",
"1701189401.897","445","1921","640","444","1916","632",
"1701189401.978","454","1908","677","444","1907","668",
"1701189402.057","380","1908",,,,,
"1701189402.058",,,"644","382","1903","644",
"1701189402.138","313","1924","613","314","1917","610",
"1701189402.22","344","1971","607","341","1965","605",
"1701189402.299","368","1901","586","364","1902","586",
"1701189402.379","536","1929","602","523","1921","596",
"1701189402.462","516","1859","567","513","1860","565",
"1701189402.541","416","1932","681",,,,
"1701189402.542",,,,"417","1923","669",
"1701189402.621","423","1884","680","423","1884","673",
"1701189402.702","344","1933","688","342","1928",,
"1701189402.703",,,,,,"684",
"1701189402.785","445","1927","725","429",,,
"1701189402.786",,,,,"1923","716",
"1701189402.863","496",,,,,,
"1701189402.864",,"1848","717","491","1848","712",
"1701189402.944","453",,,,,,
"1701189402.945",,"1902","702","456","1893","701",
"1701189403.024","269","1903","571","272","1902","575",
"1701189403.103","471","1941","589","458","1938","581",
"1701189403.184","565","1858","496","559","1863","498",
"1701189403.264","445","1915","591","446","1907",,
"1701189403.265",,,,,,"578",
"1701189403.344","301","1948","595",,,,
"1701189403.345",,,,"299","1944","589",
"1701189403.425","341",,,,,,
"1701189403.426",,"1994","575","335","1986","569",
"1701189403.506","492","1904","526",,,,
"1701189403.507",,,,"483","1907","526",
"1701189403.587","641","1876","600","625","1872","590",
"1701189403.667","413","1883","602",,,,
"1701189403.668",,,,"428","1883","596",
"1701189403.746","133",,,,,,
"1701189403.747",,"2005","572","151","1993","566",
"1701189403.827","273","2013","461","255","2010","469",
"1701189403.908","299","1954","611","284",,,
"1701189403.909",,,,,"1958","600",
"1701189403.987","360","1955","583","353",,,
"1701189403.988",,,,,"1948","580",
"1701189404.069","467","1896","589","459","1889",,
"1701189404.07",,,,,,"581",
"1701189404.148","504","1907","530","498","1902","526",
"1701189404.23","249",,,,,,
"1701189404.231",,"2080","496","259","2066","491",
"1701189404.311","194","2016","620","188",,,
"1701189404.312",,,,,"2014","608",
"1701189404.39","330","1831","658","316",,,
"1701189404.391",,,,,"1838","650",
"1701189404.471","420","1748","615","412",,,
"1701189404.472",,,,,"1749","615",
"1701189404.551","419","1721","679","415","1718","670",
"1701189404.632","471","1857","663","467","1843",,
"1701189404.633",,,,,,"664",
"1701189404.712","618",,,,,,
"1701189404.713",,"1991","442","602","1984","454",
"1701189404.793","526","1996","404","527","1994",,
"1701189404.794",,,,,,"407",
"1701189404.872","600","1800","292","584",,,
"1701189404.873",,,,,"1802","293",
"1701189404.954","1132","1963","670","1112","1957","633",
"1701189405.035","196",,,,,,
"1701189405.036",,"1924","686","231","1927","679",
"1701189405.115","626","1890","664",,,,
"1701189405.116",,,,"610","1885","662",
"1701189405.194","712","1850","461","707","1842","464",
"1701189405.274","399","1768","607",,,,
"1701189405.275",,,,"416","1776","586",
"1701189405.354","627",,,,,,
"1701189405.355",,"1940","493","593","1922","510",
"1701189405.435","1113",,,,,,
"1701189405.436",,"1982","980","1070","1961","937",
"1701189405.516","803","1400","1211",,,,
"1701189405.517",,,,"820","1422","1211",
"1701189405.595","965","1289","1306","959","1277",,
"1701189405.596",,,,,,"1292",
"1701189405.677","682","1554","1099","688",,,
"1701189405.678",,,,,"1535","1113",
"1701189405.756","662","1720","1164","647","1697",,
"1701189405.757",,,,,,"1157",
"1701189405.836","740",,,,,,
"1701189405.837",,"1582","1060","729","1586","1053",
"1701189405.917","667","1671","981","666",,,
"1701189405.918",,,,,"1664","974",
"1701189405.997","583","1784","935","580",,,
"1701189405.998",,,,,"1773","932",
"1701189406.078","585","1726","982","582",,,
"1701189406.079",,,,,"1728","971",
"1701189406.157","644",,,,,,
"1701189406.158",,"1721","990","636","1714","982",
"1701189406.238","617","1726","947","615",,,
"1701189406.239",,,,,"1721","947",
"1701189406.319","668",,,,,,
"1701189406.32",,"1705","948","660","1703","945",
"1701189406.401","584",,,,,,
"1701189406.402",,"1725","916","584","1719","914",
"1701189406.481","621","1745","907","613","1741","901",
"1701189406.561","604","1719",,,,,
"1701189406.562",,,"923","602","1717","919",
"1701189406.641","612",,,,,,
"1701189406.642",,"1753","929","607","1744","928",
"1701189406.722","583","1748",,,,,
"1701189406.723",,,"923","580","1743","918",
"1701189406.802","603","1750","967",,,,
"1701189406.803",,,,"597","1746","960",
"1701189406.881","554",,,,,,
"1701189406.882",,"1744","905","554","1743","905",
"1701189406.963","579","1772","881","575","1767",,
"1701189406.964",,,,,,"877",
"1701189407.044","554","1750",,,,,
"1701189407.045",,,"840","551","1748","840",
"1701189407.124","518",,,,,,
"1701189407.125",,"1791","849","518","1785","844",
"1701189407.203","595","1702","905","587","1705","896",
"1701189407.284","651","1752","919",,,,
"1701189407.285",,,,"646","1745","912",
"1701189407.364","524","1799","914",,,,
"1701189407.365",,,,"527","1792","909",
"1701189407.459","531","1758","886","524","1759","884",
"1701189407.525","648","1719","940",,,,
"1701189407.526",,,,"636","1718","931",
"1701189407.604","587","1767",,,,,
"1701189407.605",,,"900","586","1759","897",
"1701189407.686","548","1773","892","544","1768",,
"1701189407.687",,,,,,"889",
"1701189407.767","541",,,,,,
"1701189407.768",,"1794","897","536","1786","893",
"1701189407.847","550","1779","888","548",,,
"1701189407.848",,,,,"1777","888",
"1701189407.927","547","1760","870","543","1756","867",
"1701189408.008","522","1775","851","522",,,
"1701189408.009",,,,,"1773","846",
"1701189408.087","492","1848","840","492","1839","838",
"1701189408.168","467",,,,,,
"1701189408.169",,"1813","766","466","1808","767",
"1701189408.248","576",,,,,,
"1701189408.249",,"1798","812","563","1791","805",
"1701189408.33","516","1788","846","516","1784","840",
"1701189408.41","546","1775","899","536",,,
"1701189408.411",,,,,"1769","893",
"1701189408.503","500","1790","912","499","1786","908",
"1701189408.572","442","1786","891",,,,
"1701189408.573",,,,"440","1785","887",
"1701189408.654","532","1755","928","524","1751","921",
"1701189408.734","559","1784","862","553","1780","861",
"1701189408.814","541",,,,,,
"1701189408.815",,"1789","833","537","1785","830",
"1701189408.894","520",,,,,,
"1701189408.895",,"1759","881","515","1759","874",
"1701189408.976","539","1770","909","530","1767","903",
"1701189409.056","527","1792","858","522","1786","858",
"1701189409.135","514","1801","837","513","1797","831",
"1701189409.216","566","1803","912","558",,,
"1701189409.217",,,,,"1799","903",
"1701189409.295","502","1806","916",,,,
"1701189409.296",,,,"502","1800","911",
"1701189409.376","539",,,,,,
"1701189409.377",,"1763","897","531","1759","894",
"1701189409.457","520","1846","863","514","1834","863",
"1701189409.537","372","1879",,,,,
"1701189409.538",,,"853","373","1871","846",
"1701189409.617","431","1781","885","427",,,
"1701189409.618",,,,,"1781","880",
"1701189409.698","448",,,,,,
"1701189409.699",,"1786","904","449","1780","902",
"1701189409.778","492","1740","954","483","1736","943",
"1701189409.859","482","1707","934",,,,
"1701189409.86",,,,"484","1705","933",
"1701189409.938","443",,,,,,
"1701189409.939",,"1782","892","435","1777","892",
"1701189410.02","427","1769","933","425","1768","921",
"1701189410.099","597",,,,,,
"1701189410.1",,"1832","895","585","1823","893",
"1701189410.18","361","2035","778","366",,,
"1701189410.181",,,,,"2013","788",
"1701189410.262","333","1915","887","329","1927","867",
"1701189410.341","546","1558",,,,,
"1701189410.342",,,"836","538","1576","834",
"1701189410.422","533",,,,,,
"1701189410.423",,"1653","1009","536","1642","997",
"1701189410.501","385",,,,,,
"1701189410.502",,"1698","983","386","1686","981",
"1701189410.584","664","2230","910","639","2185","918",
"1701189410.663","34","1805","699","72","1844","711",
"1701189410.743","509",,,,,,
"1701189410.744",,"1671","578","483","1674","567",
"1701189410.824","243","1980","497",,,,
"1701189410.825",,,,"284","1975","499",
"1701189410.904","459","1901","658","444",,,
"1701189410.905",,,,,"1912","651",
"1701189410.984","638",,,,,,
"1701189410.985",,"1799","613","625","1807","610",
"1701189411.065","365","1829","634",,,,
"1701189411.066",,,,"368","1824","629",
"1701189411.144","508","1927","837","494",,,
"1701189411.145",,,,,"1915","821",
"1701189411.227","589","1821","992","593","1834","989",
"1701189411.307","645",,,,,,
"1701189411.308",,"1872","1203","651","1871","1193",
"1701189411.386","180","1820","892",,,,
"1701189411.387",,,,"205","1802","904",
"1701189411.467","-16","1666",,,,,
"1701189411.468",,,"678","-26","1654","680",
"1701189411.548","280",,,,,,
"1701189411.549",,"1436","948","246","1430","918",
"1701189411.629","780","2136","1762","791","2069","1661",
"1701189411.71","672","1859","841","721","1843","819",
"1701189411.79","-60",,,,,,
"1701189411.791",,"2129","752","-42","2084","735",
"1701189411.871","578",,,,,,
"1701189411.872",,"1930","707","548","1926","683",
"1701189411.95","376",,,,,,
"1701189411.951",,"1917","620","367","1896","605",
"1701189412.032","781","1785","798","766","1789","781",
"1701189412.113","400","1896",,,,,
"1701189412.114",,,"839","436","1884","827",
"1701189412.193","715","1741","850","700","1743","845",
"1701189412.272","613","1761",,,,,
"1701189412.273",,,"877","609","1761","872",
"1701189412.353","807",,,,,,
"1701189412.354",,"1693","875","795","1695","866",
"1701189412.434","623",,,,,,
"1701189412.435",,"1798","765","635","1784","756",
"1701189412.514","643","1819",,,,,
"1701189412.515",,,"804","647","1806","796",
"1701189412.595","578",,,,,,
"1701189412.596",,"1740","745","576","1737","752",
"1701189412.676","413",,,,,,
"1701189412.677",,"1897","723","406","1881","716",
"1701189412.756","233","1969","699","242","1959","689",
"1701189412.835","365",,,,,,
"1701189412.836",,"1932","652","360","1921","646",
"1701189412.916","341",,,,,,
"1701189412.917",,"1899","614","336","1897","647",
"1701189412.997","112",,,,,,
"1701189412.998",,"1947","805","117","1940","785",
"1701189413.079","359","1933","856","342","1929","852",
"1701189413.158","637",,,,,,
"1701189413.159",,"1748","864","626","1755","860",
"1701189413.239","753",,,,,,
"1701189413.24",,"1751","812","756","1746","804",
"1701189413.319","577","1832",,,,,
"1701189413.32",,,"837","584","1828","826",
"1701189413.4","570",,,,,,
"1701189413.401",,"1863","806","565","1857","803",
"1701189413.479","687",,,,,,
"1701189413.48",,"1747","723","674","1753","720",
"1701189413.559","780",,,,,,
"1701189413.56",,"1792","690","769","1783","684",
"1701189413.64","563","1911",,,,,
"1701189413.641",,,"624","569","1900","622",
"1701189413.719","505",,,,,,
"1701189413.72",,"1788","574","496","1791","575",
"1701189413.801","301",,,,,,
"1701189413.802",,"1934","769","309","1920","750",
"1701189413.882","106",,,,,,
"1701189413.883",,"1834","725","115","1840","721",
"1701189413.963","-37","1967",,,,,
"1701189413.964",,,"646","-34","1951","642",
"1701189414.044","288",,,,,,
"1701189414.045",,"1968","614","264","1963","622",
"1701189414.125","139","1918","557","139","1914","574",
"1701189414.205","-96","2001",,,,,
"1701189414.206",,,"599","-88","1991","589",
"1701189414.287","1155",,,,,,
"1701189414.288",,"2028","279","1078","2025","306",
"1701189414.366","498","1852",,,,,
"1701189414.367",,,"513","550","1861","488",
"1701189414.447","470","1973",,,,,
"1701189414.448",,,"200","461","1972","208",
"1701189414.527","724",,,,,,
"1701189414.528",,"1980","354","710","1973","344",
"1701189414.609","693","1894","399","692","1893","393",
"1701189414.689","619",,,,,,
"1701189414.69",,"1955","261","617","1950","266",
"1701189414.771","729","1955","243","721","1949","246",
"1701189414.851","740",,,,,,
"1701189414.852",,"1955","169","734","1952","169",
"1701189414.931","820","1923","226","815","1918","227",
"1701189415.012","553","1933","265","573","1928","259",
"1701189415.091","465",,,,,,
"1701189415.092",,"1990","273","468","1979","266",
"1701189415.172","177",,,,,,
"1701189415.173",,"1970","369","185","1968","356",
"1701189415.267","164","2068","335","160","2059",,
"1701189415.268",,,,,,"333",
"1701189415.334","307","2013","339","296","2017","337",
"1701189415.414","216",,,,,,
"1701189415.415",,"2038","302","219","2028","303",
"1701189415.493","241",,,,,,
"1701189415.494",,"2044","344","238","2042","341",
"1701189415.575","341","2152","278","332","2127","279",
"1701189415.656","328","1974","449","310","1956","439",
"1701189415.735","554",,,,,,
"1701189415.736",,"1938","451","555","1935","447",
"1701189415.816","577",,,,,,
"1701189415.817",,"1973","400","572","1968","401",
"1701189415.896","368",,,,,,
"1701189415.897",,"1954","317","378","1950","319",
"1701189415.978","185","2081","258","190","2061","252",
"1701189416.059","273","2130","238","262","2122",,
"1701189416.06",,,,,,"232",
"1701189416.139","410",,,,,,
"1701189416.14",,"1883","316","373","1927","295",
"1701189416.218","476",,,,,,
"1701189416.219",,"1934","444","454","1944","422",
"1701189416.304","39","2057","255","44","2047","251",
"1701189416.382","360","2036","284","335","2028","286",
"1701189416.46","207",,,,,,
"1701189416.461",,"1928","231","207","1956","237",
"1701189416.541","39",,,,,,
"1701189416.542",,"2052","251","34","2042","249",
"1701189416.623","267","1862","115","249","1855","130",
"1701189416.704","447","2416","338","413","2354","340",
"1701189416.784","284","2080","417","276","2078","394",
"1701189416.864","100","1954","180","96","1959","179",
"1701189416.943","170",,,,,,
"1701189416.944",,"2104","299","167","2107","298",
"1701189417.024","188","1926","140","185","1936",,
"1701189417.025",,,,,,"152",
"1701189417.105","334","2094","177","304","2076","169",
"1701189417.186","208","2050","285","238","2053","270",
"1701189417.266","670",,,,,,
"1701189417.267",,"2540","348","683","2515","328",
"1701189417.347","-565",,,,,,
"1701189417.348",,"1915","17","-506","1940","26",
"1701189417.429","152","1648","134","69","1676","117",
"1701189417.51","169","2052","437","181","2070","409",
"1701189417.59","111",,,,,,
"1701189417.591",,"1894","148","108","1889","156",
"1701189417.672","262","2136","440","252","2079","413",
"1701189417.753","89","2056","273","98","2055","270",
"1701189417.832","-84","1364","134","-58","1443","151",
"1701189417.913","166","2833","319","141","2651","299",
"1701189417.991","66",,,,,,
"1701189417.992",,"1926","371","96","1952","376",
"1701189418.073","-9","2156","314","10","2128","304",
"1701189418.154","367","1951","361","366","1952","347",
"1701189418.233","529","2054","317","522","2033",,
"1701189418.234",,,,,,"323",
"1701189418.313","415",,,,,,
"1701189418.314",,"2037","301","412","2023","297",
"1701189418.396","184","2059","318","181","2062","312",
"1701189418.476","53","1958","202","85","1957","215",
"1701189418.558","395","1885","179","336","1912","189",
"1701189418.638","295",,,,,,
"1701189418.639",,"1933","308","275","1946","307",
"1701189418.718","373","1987","363","350","1988","363",
"1701189418.799","435","2124","479","416","2113","470",
"1701189418.879","442","2346","389","423","2333","390",
"1701189418.96","28","2235","203","60","2237","220",
"1701189419.041","397","1961","146","363","1961","146",
"1701189419.12","116","2043","652","123","2036","590",
"1701189419.201","131","2263","-15","142","2241","15",
"1701189419.283","403","2081","245",,,,
"1701189419.284",,,,"405","2075","260",
"1701189419.363","393","1915","-106","406","1914","-83",
"1701189419.444","528","1884","249","508","1884","218",
"1701189419.524","844","2237","-908","827","2210","-827",
"1701189419.605","1526","2009","-1373","1479","2020","-1332",
"1701189419.686","1223","1699","-1893","1232","1727","-1872",
"1701189419.767","422","636","-1950","483","691","-1944",
"1701189419.847","1039",,,,,,
"1701189419.848",,"54","-2602","1004","47","-2575",
"1701189419.928","172","-409","-2214","198","-387","-2228",
"1701189420.009","919",,,,,,
"1701189420.01",,"-811","-1982","898","-803","-1974",
"1701189420.09","452","-1142","-1579","464","-1137","-1618",
"1701189420.17","642",,,,,,
"1701189420.171",,"-1293","-1231","615","-1285","-1251",
"1701189420.251","52",,,,,,
"1701189420.252",,"-1470","-648","67","-1462","-673",
"1701189420.332","568",,,,,,
"1701189420.333",,"-1672","-1087","514","-1662","-1075",
"1701189420.413","548","-1369","-1499","544","-1390","-1484",
"1701189420.494","418","-1107","-1053","465","-1122","-1070",
"1701189420.575","247","-947","-853","270","-950","-851",
"1701189420.656","-123","-1314","90","-124","-1297","36",
"1701189420.737","526",,,,,,
"1701189420.738",,"-1402","39","458","-1404","23",
"1701189420.818","-112",,,,,,
"1701189420.819",,"-1359","-716","-76","-1360","-666",
"1701189420.9","699","-1738","-651","655","-1721","-659",
"1701189420.982","662","-1918","-744","650","-1911",,
"1701189420.983",,,,,,"-743",
"1701189421.061","518","-1570","-843","529","-1592","-828",
"1701189421.143","489","-1218","-620","488","-1238","-624",
"1701189421.223","1218",,,,,,
"1701189421.224",,"-1377","-499","1182","-1372","-509",
"1701189421.304","1772",,,,,,
"1701189421.305",,"-1495","-690","1723","-1500","-699",
"1701189421.385","2015","-1438","-986",,,,
"1701189421.386",,,,"1984","-1447","-986",
"1701189421.466","1473","-1341","-1028","1510","-1348","-1032",
"1701189421.547","1481","-1253","82","1484","-1257","36",
"1701189421.628","2047","-1078","355","2026","-1093","427",
"1701189421.709","827","-936","1217","865","-930","1250",
"1701189421.79","700","-1005","2236","670","-978","2248",
"1701189421.871","238","-1864","1563","244","-1844","1573",
"1701189421.952","-601","-1024","1461","-571","-1056","1464",
"1701189422.03","-1107",,,,,,
"1701189422.031",,"-929","1438","-1085","-938","1432",
"1701189422.112","-1091","-509","1533","-1079","-534","1528",
"1701189422.193","-1081","-149","1422","-1084","-170","1423",
"1701189422.274","-930","510","1461","-933","478","1457",
"1701189422.355","-901","510","1287","-901","488","1285",
"1701189422.436","-887","454","1481","-892","453","1465",
"1701189422.525","-1121",,,,,,
"1701189422.526",,"-9","1381","-1119","58","1386",
"1701189422.598","-841","508","1648","-850","485","1645",
"1701189422.679","304","865","2249","255","846","2216",
"1701189422.759","697","442","2589","686","459","2564",
"1701189422.839","527",,,,,,
"1701189422.84",,"198","2674","526","210","2655",
"1701189422.92","191",,,,,,
"1701189422.921",,"320","2650","210","310","2660",
"1701189423.002","-105","381","2508",,,,
"1701189423.003",,,,"-89","371","2514",
"1701189423.083","56","12","2223","45","30","2245",
"1701189423.163","-256","-209",,,,,
"1701189423.164",,,"1302","-246","-198","1347",
"1701189423.244","-158","-31","715","-187","-18","741",
"1701189423.325","-795","-28","727","-766","-21","715",
"1701189423.406","-1046","-737","2352","-1033","-727","2255",
"1701189423.486","-527","-725","3248","-551","-749","3210",
"1701189423.577","-565","-11","2448","-549","-58","2496",
"1701189423.648","56","123","2362","33","101","2352",
"1701189423.729","135","-41","1986","131","-48","1995",
"1701189423.809","102","-210","1858","108","-218","1859",
"1701189423.89","149","-468","1424","136","-470","1434",
"1701189423.971","83","-232","1871","86","-245",,
"1701189423.972",,,,,,"1843",
"1701189424.052","16","-32","2372","7","-44","2329",
"1701189424.133","105","117","2405","100","114","2403",
"1701189424.212","43","865","2094","47","820","2110",
"1701189424.292","-40","22","1483","-33","68","1517",
"1701189424.373","-325","-1521","1613","-319","-1425","1602",
"1701189424.454","-295","-967","2180","-292","-984","2160",
"1701189424.537","477","-47","2345","431","-87","2325",
"1701189424.616","395","410","2130","398","380","2132",
"1701189424.697","365","162","1881","365","166",,
"1701189424.698",,,,,,"1881",
"1701189424.778","112","-26","1982","121","-24","1979",
"1701189424.859","179","369","2159",,,,
"1701189424.86",,,,"172","332","2146",
"1701189424.939","382","481","2193","365",,,
"1701189424.94",,,,,"466","2188",
"1701189425.018","490","798","1998","479","791","2006",
"1701189425.099","308","1116","1452","315","1090","1470",
"1701189425.179","519","829","1705","508","820","1683",
"1701189425.26","396","469","1415","399","477","1433",
"1701189425.339","703","-14","1558","672","-1","1538",
"1701189425.42","842","-83","1702","824","-80","1688",
"1701189425.499","972","311",,,,,
"1701189425.5",,,"1631","966","280","1625",
"1701189425.58","1155","353","1939","1143","340","1920",
"1701189425.661","1506","240","2226","1479","236","2207",
"1701189425.742","1523","249","2090","1493","247","2082",
"1701189425.822","1200","569","2013","1209","560","2021",
"1701189425.903","932","799","1811","961","796","1835",
"1701189425.982","1336","1056","1952","1309","1048",,
"1701189425.983",,,,,,"1945",
"1701189426.064","1256","688","1492","1254","711","1511",
"1701189426.143","1149","495","1478","1144","501","1473",
"1701189426.224","1222","445",,,,,
"1701189426.225",,,"1553","1205","437","1548",
"1701189426.305","1326","207","1393","1322","217","1416",
"1701189426.385","1333","-114","1408","1340","-94","1421",
"1701189426.465","1298","-363","1411","1277","-341","1385",
"1701189426.546","1245","-124","1376","1254","-159","1382",
"1701189426.627","1382","-1133","1191","1378","-1026","1219",
"1701189426.709","1646","126","1491","1624","41","1483",
"1701189426.789","1337","276","1330","1326","267","1339",
"1701189426.869","1496","523","1145","1473","527","1142",
"1701189426.95","1730","779",,,,,
"1701189426.951",,,"1227","1728","776","1213",
"1701189427.032","2007","792","1309",,,,
"1701189427.033",,,,"1962","787","1305",
"1701189427.112","2496","662","6","2469","653","44",
"1701189427.192","2355","301","-470","2347","320","-449",
"1701189427.273","2050","413","-176","2054","393","-196",
"1701189427.354","2157","849","162","2133","821","135",
"1701189427.434","1138","2009","539","1177","1978","509",
"1701189427.514","2018","801","-22","1969","812","23",
"1701189427.596","1949","1175","215","1963","1157","199",
"1701189427.677","1623","2101","174","1634","2047","157",
"1701189427.756","1763","1130","155","1764","1198",,
"1701189427.757",,,,,,"129",
"1701189427.837","1592","764","8","1608","799","-3",
"1701189427.918","1342","1692","-60","1345","1617","-73",
"1701189427.999","895","2285","-271","898","2253","-259",
"1701189428.079","795","795","-94","786","843","-116",
"1701189428.16","1299","976","220","1277","948",,
"1701189428.161",,,,,,"198",
"1701189428.241","1488","2517","-410","1484","2397","-333",
"1701189428.322","1829","1933","376","1777","1949","314",
"1701189428.403","1152","1649",,,,,
"1701189428.404",,,"209","1161","1656","194",
"1701189428.484","1098","1696",,,,,
"1701189428.485",,,"185","1098","1691","171",
"1701189428.565","771","1988","222","789","1971","185",
"1701189428.645","1346","1196","319","1268","1270","265",
"1701189428.726","1849","1426","436","1834","1388","430",
"1701189428.807","1403","1981","583","1409","1927","573",
"1701189428.888","1005","1960","94","1000","1924","100",
"1701189428.968","910","2263","364","909","2196","325",
"1701189429.049","387","2150","136","474","2135","93",
"1701189429.13","1718",,,,,,
"1701189429.131",,"1243","209","1693","1260","203",
"1701189429.209","1271","1259","87","1289","1293","108",
"1701189429.29","-14","2172","489",,,,
"1701189429.291",,,,"39","2190","456",
"1701189429.371","121","2336","615","113","2283","630",
"1701189429.452","890","1963","-51","832","1922","-21",
"1701189429.533","1396","1158","313","1452","1206","286",
"1701189429.614","732","2317","386","750","2210",,
"1701189429.615",,,,,,"409",
"1701189429.694","647","2066","430","627","2084",,
"1701189429.695",,,,,,"421",
"1701189429.773","955","1875","345","964","1851","324",
"1701189429.855","917","1864","320","940","1842","340",
"1701189429.934","-74","1763","437","16","1785","458",
"1701189430.015","766","1687","118","732","1683","146",
"1701189430.096","392","2198","144","394","2176","123",
"1701189430.177","-139",,,,,,
"1701189430.178",,"1897","389","-116","1898","364",
"1701189430.258","208","1389","131","193","1424","145",
"1701189430.349","798","1757","134","744","1725","121",
"1701189430.419","523","3099","201","554","3061",,
"1701189430.42",,,,,,"182",
"1701189430.5","-193",,,,,,
"1701189430.501",,"2283","-71","-167","2283","-64",
"1701189430.58","-204","2227","61",,,,
"1701189430.581",,,,"-192","2228","46",
"1701189430.661","259","2139","338","222","2140","332",
"1701189430.742","109","2009","346","115","2013","328",
"1701189430.823","129","1850","298","121","1850","292",
"1701189430.902","-71","1731","530","-65","1728","512",
"1701189430.983","-35","1707","642","-40","1704",,
"1701189430.984",,,,,,"632",
"1701189431.064","-16","1781","772","-14","1774","764",
"1701189431.145","412","2086","984","379","2082","962",
"1701189431.225","-310",,,,,,
"1701189431.226",,"1931","426","-256","2012","448",
"1701189431.305","199","2042","22","171","2021","13",
"1701189431.394","394","2051","-49","409","2052",,
"1701189431.395",,,,,,"-56",
"1701189431.467","338",,,,,,
"1701189431.468",,"2072","13","328","2068","15",
"1701189431.548","299","2057","78","302","2051","67",
"1701189431.628","241","2039","10","243","2039","14",
"1701189431.708","234","2045","2","233",,,
"1701189431.709",,,,,"2042","3",
"1701189431.791","173","2072","81","168","2062","75",
"1701189431.871","232","2075","-30","227",,,
"1701189431.872",,,,,"2071","-31",
"1701189431.952","306",,,,,,
"1701189431.953",,"2124","-134","294","2122","-136",
"1701189432.033","-195","2092","46","-174","2097","35",
"1701189432.114","-428","2048","111","-423","2049","101",
"1701189432.193","-11","2086","209","-33","2079","197",
"1701189432.273","-277","2017","221","-258","2016","218",
"1701189432.354","-58","1965","299",,,,
"1701189432.355",,,,"-73","1959","287",
"1701189432.44","-131","1946","321","-132","1940","313",
"1701189432.516","-107","2001","361","-111","1995","355",
"1701189432.597","-188",,,,,,
"1701189432.598",,"1991","398","-188","1985","393",
"1701189432.677","-158","1981","397","-165","1978","391",
"1701189432.758","-195","2001","379","-197","1992","377",
"1701189432.839","-236",,,,,,
"1701189432.84",,"1998","369","-237","1993","363",
"1701189432.918","-190","1973","338","-198","1969","337",
"1701189432.999","-208","2001","299","-208",,,
"1701189433",,,,,"1995","299",
"1701189433.08","-259","2020","315","-264","2012","310",
"1701189433.16","-258","2007","294",,,,
"1701189433.161",,,,"-261","2002","291",
"1701189433.24","-236","2037","290","-238","2033","289",
"1701189433.322","-256","2017","282","-260",,,
"1701189433.323",,,,,"2015","280",
"1701189433.401","-260","2014","253","-264","2008","251",
"1701189433.482","-240","2043","240","-246","2035","238",
"1701189433.562","-270","2007","236",,,,
"1701189433.563",,,,"-270","2005","233",
"1701189433.643","-256","2014","255","-261","2013","252",
"1701189433.724","-225","2026","285","-231","2020","278",
"1701189433.805","-214","2025","315","-216","2018","308",
"1701189433.885","-177","2027","311","-177","2020","308",
"1701189433.966","-160","2002","296","-166","1997","292",
"1701189434.046","-208","2004","306","-210","1997",,
"1701189434.047",,,,,,"299",
"1701189434.126","-248","2003",,,,,
"1701189434.127",,,"345","-250","1999","338",
"1701189434.207","-270",,,,,,
"1701189434.208",,"2014","358","-273","2014","354",
"1701189434.287","-238","2017","388","-239","2013","382",
"1701189434.368","-127","1982","381","-135","1978","375",
"1701189434.449","-146","2003","395","-142","1996","389",
"1701189434.53","-165","2000","415","-168","1996","411",
"1701189434.61","-173","1996","406","-177","1990","405",
"1701189434.693","-173","1993","413","-178","1991","407",
"1701189434.774","-191","1984","408","-191",,,
"1701189434.775",,,,,"1981","404",
"1701189434.854","-164","1997","416","-164","1994","412",
"1701189434.935","-165","2002","410","-166","1996","408",
"1701189435.016","-165","1984","407","-171",,,
"1701189435.017",,,,,"1983","406",
"1701189435.097","-135","2011","412","-136","2002","408",
"1701189435.176","-165","1994","404","-159","1993","402",
"1701189435.257","-150",,,,,,
"1701189435.258",,"1999","395","-157","1994","392",
"1701189435.338","-141","2016","386","-146","2009","383",
"1701189435.418","-187","2001","379","-185",,,
"1701189435.419",,,,,"1998","375",
"1701189435.501","-168","2018","369","-171","2013","368",
"1701189435.58","-180","2003",,,,,
"1701189435.581",,,"374","-184","1997","371",
"1701189435.661","-165","2011","361","-170","2004","360",
"1701189435.741","-150","2007",,,,,
"1701189435.742",,,"361","-157",,,
"1701189435.743",,,,,"2004","359",
"1701189435.822","-135","1998","366","-135","1995","359",
"1701189435.903","-131","2020","371","-131",,,
"1701189435.904",,,,,"2014","364",
"1701189435.984","-143",,,,,,
"1701189435.985",,"2014","342","-143","2013","341",
"1701189436.08","-179","1997",,,,,
"1701189436.081",,,"330","-174","1995","327",
"1701189436.146","-150","2022","333","-160","2014","331",
"1701189436.227","-157","2023","332","-160","2019",,
"1701189436.228",,,,,,"331",
"1701189436.307","-177","2013","306",,,,
"1701189436.308",,,,"-176","2011","304",
"1701189436.388","-208",,,,,,
"1701189436.389",,"2020","309","-202","2011","307",
"1701189436.469","-180","2024","323","-181","2021","316",
"1701189436.55","-180","2022","303","-180","2019","302",
"1701189436.631","-165","2012","304","-173","2006",,
"1701189436.632",,,,,,"301",
"1701189436.711","-165",,,,,,
"1701189436.712",,"2011","310","-173","2006","304",
"1701189436.792","-165","2011","315","-168","2010","310",
"1701189436.872","-180","2015","319","-179","2011","313",
"1701189436.955","-188","2022","329","-186","2016","321",
"1701189437.036","-180","2018","331","-185","2015","324",
"1701189437.116","-180",,,,,,
"1701189437.117",,"2015","330","-183","2015","327",
"1701189437.197","-174","2015","332","-177","2011","327",
"1701189437.278","-165","2010","327",,,,
"1701189437.279",,,,"-177","2009","326",
"1701189437.358","-165","2010","332","-176",,,
"1701189437.359",,,,,"2005","326",
"1701189437.44","-180","2021","341","-177","2013","334",
"1701189437.518","-180","2012","345","-180","2010","337",
"1701189437.599","-175","2012","336","-178","2010","336",
"1701189437.681","-165","2013","342","-177","2010","337",
"1701189437.76","-165","2011","352",,,,
"1701189437.761",,,,"-175","2010","347",
"1701189437.841","-159","2006","354","-163","2005","348",
"1701189437.922","-165","2009","350","-163","2005",,
"1701189437.923",,,,,,"348",
"1701189438.003","-165","2011","353",,,,
"1701189438.004",,,,"-166","2005","348",
"1701189438.085","-165","2011","356","-169","2005","348",
"1701189438.165","-165",,,,,,
"1701189438.166",,"2014","358","-169","2006","353",
"1701189438.246","-165",,,,,,
"1701189438.247",,"2007","363","-168","2005","355",
"1701189438.326","-150","2010","349","-153",,,
"1701189438.327",,,,,"2005","349",
"1701189438.407","-165","2003","356",,,,
"1701189438.408",,,,"-166","2003","349",
"1701189438.488","-158","2007","366",,,,
"1701189438.489",,,,"-159","2000","358",
"1701189438.568","-120","2022","375","-123","2014","373",
"1701189438.662","-105","2001","379","-110","1999",,
"1701189438.663",,,,,,"378",
"1701189438.729","-117","1980","378","-121",,,
"1701189438.73",,,,,"1977","373",
"1701189438.81","-150","1992","366","-147","1989","362",
"1701189438.891","-144","2008","370","-147","2002","366",
"1701189438.972","-161","2009","355","-162","2009","352",
"1701189439.053","-135","1985","379","-141","1984","373",
"1701189439.133","-24",,,,,,
"1701189439.134",,"1993","379","-34","1990","373",
"1701189439.214","-54","2038",,,,,
"1701189439.215",,,"348","-54","2031","348",
"1701189439.295","-237","1988","311",,,,
"1701189439.296",,,,"-230","1987","312",
"1701189439.376","-122","1943","151","-129","1943","154",
"1701189439.457","25","2055","224",,,,
"1701189439.458",,,,"17","2039","209",
"1701189439.537","-74","2125","205","-68","2121","200",
"1701189439.619","8","2085","114","2","2083","111",
"1701189439.705","-268","2028","-43","-253","2028","-35",
"1701189439.779","62","2080","-81","38","2071","-81",
"1701189439.861","643","2136","-207","618","2124","-210",
"1701189439.942","397","2048","-163","400","2051","-164",
"1701189440.021","206","2061","85","215","2055","65",
"1701189440.102","310","2021","169","312","2020","160",
"1701189440.182","354","2068","45","362","2062",,
"1701189440.183",,,,,,"44",
"1701189440.263","529","2036","-43","511",,,
"1701189440.264",,,,,"2031","-44",
"1701189440.344","513","2058","-191",,,,
"1701189440.345",,,,"509","2053","-189",
"1701189440.425","168","2083","-208","178","2076",,
"1701189440.426",,,,,,"-212",
"1701189440.506","-47","2070","105","-43","2060","89",
"1701189440.586","214","2131",,,,,
"1701189440.587",,,"333","192","2116","321",
"1701189440.667","-134","2128","594","-124","2118","568",
"1701189440.749","-386","1832","607","-381","1847","609",
"1701189440.828","-413","2254","153","-427","2215","172",
"1701189440.909","-355","1993","285","-363","2013","288",
"1701189440.989","-272",,,,,,
"1701189440.99",,"1799","328","-276","1802","318",
"1701189441.069","-541",,,,,,
"1701189441.07",,"1818","574","-526","1818","553",
"1701189441.15","-385","1868","577","-388","1861","572",
"1701189441.231","-315","1948","410","-321","1943","416",
"1701189441.312","-216","2085","613",,,,
"1701189441.313",,,,"-221","2070","597",
"1701189441.393","228","1940","87","200","1947",,
"1701189441.394",,,,,,"115",
"1701189441.474","-165","2140","545",,,,
"1701189441.475",,,,"-139","2117","508",
"1701189441.555","184","2047","74","163","2047",,
"1701189441.556",,,,,,"94",
"1701189441.636","409","2118","170",,,,
"1701189441.637",,,,"401","2106","162",
"1701189441.717","322","2050",,,,,
"1701189441.718",,,"66","319","2053","63",
"1701189441.796","220",,,,,,
"1701189441.797",,"2097","103","221","2089","94",
"1701189441.877","56","2027","158","62",,,
"1701189441.878",,,,,"2029","157",
"1701189441.958","548","2053","58","525","2047","52",
"1701189442.039","379",,,,,,
"1701189442.04",,"2010","4","383","2011","0",
"1701189442.12","151","2087",,,,,
"1701189442.121",,,"-4","158","2081","-4",
"1701189442.202","197","2068","-25",,,,
"1701189442.203",,,,"192","2068","-25",
"1701189442.297","235","2064","-79","223","2058",,
"1701189442.298",,,,,,"-77",
"1701189442.363","84",,,,,,
"1701189442.364",,"2040","72","89","2034","60",
"1701189442.444","315",,,,,,
"1701189442.445",,"1980","168","297","1980","162",
"1701189442.523","170","2118","380","177","2105","359",
"1701189442.605","-5","2084","388","-4","2082","382",
"1701189442.685","-67","1934","228","-67","1940",,
"1701189442.686",,,,,,"230",
"1701189442.766","-145",,,,,,
"1701189442.767",,"1942","272","-150","1937","267",
"1701189442.844","-280",,,,,,
"1701189442.845",,"1962","248","-279","1956","246",
"1701189442.925","-431","2018",,,,,
"1701189442.926",,,"332","-431","2012","328",
"1701189443.007","-421","2060","367","-429",,,
"1701189443.008",,,,,"2053","359",
"1701189443.088","-293","1877",,,,,
"1701189443.089",,,"220","-300","1881","220",
"1701189443.168","-152",,,,,,
"1701189443.169",,"1967","299","-161","1955","282",
"1701189443.249","-609","2349",,,,,
"1701189443.25",,,"397","-572","2304","367",
"1701189443.342","350","2099","162","311","2096","176",
"1701189443.411","272","2077","225","257","2064",,
"1701189443.412",,,,,,"228",
"1701189443.492","65","1994","266",,,,
"1701189443.493",,,,"70","1994","257",
"1701189443.573","251",,,,,,
"1701189443.574",,"2036","275","238","2030","260",
"1701189443.656","-72","2032","9","-67","2026","21",
"1701189443.735","-218","2116","20",,,,
"1701189443.736",,,,"-223","2110","17",
"1701189443.816","-101","2048","74","-119",,,
"1701189443.817",,,,,"2047","67",
"1701189443.897","-99","1990","355",,,,
"1701189443.898",,,,"-101","1988","336",
"1701189443.979","-279","1950","465","-262","1947","457",
"1701189444.058","-52","2048","464",,,,
"1701189444.059",,,,"-63","2039","462",
"1701189444.139","-87","2059","336",,,,
"1701189444.14",,,,"-90","2051","340",
"1701189444.22","-77","2000","135","-82",,,
"1701189444.221",,,,,"2001","139",
"1701189444.301","64","2074","119",,,,
"1701189444.302",,,,"52","2068","119",
"1701189444.382","49","2049","22","33","2050","26",
"1701189444.461","46","2058",,,,,
"1701189444.462",,,"215","31","2045","200",
"1701189444.542","23","1972","124",,,,
"1701189444.543",,,,"20","1980","127",
"1701189444.623","3","2057","240","-4","2060","256",
"1701189444.704","252","2040","246","229","2039","248",
"1701189444.784","266","1908","236",,,,
"1701189444.785",,,,"249","1911","230",
"1701189444.863","60","2034","273",,,,
"1701189444.864",,,,"70","2027","272",
"1701189444.945","-25","2090","339","-19","2093","336",
"1701189445.025","125",,,,,,
"1701189445.026",,"1975","370","113","1978","371",
"1701189445.106","60","1952","403","65",,,
"1701189445.107",,,,,"1952","398",
"1701189445.187","42","2035",,,,,
"1701189445.188",,,"469","40","2032","465",
"1701189445.267","103","2019",,,,,
"1701189445.268",,,"404","98","2022","408",
"1701189445.348","59","2006","416","61",,,
"1701189445.349",,,,,"2004","414",
"1701189445.431","162","1991","351","157",,,
"1701189445.432",,,,,"1987","350",
"1701189445.508","545","1966","435",,,,
"1701189445.509",,,,"521","1964","425",
"1701189445.59","425","1960","515",,,,
"1701189445.591",,,,"427","1958","512",
"1701189445.669","130",,,,,,
"1701189445.67",,"1986","436","135","1980","437",
"1701189445.751","-309","2124","372","-288","2113","365",
"1701189445.829","-282","2176","-22",,,,
"1701189445.83",,,,"-284","2171","-6",
"1701189445.912","-108","2109","264","-120","2103","247",
"1701189445.993","289","2187","517",,,,
"1701189445.994",,,,"268","2177","496",
"1701189446.072","3","1992","687",,,,
"1701189446.073",,,,"48","2004","660",
"1701189446.153","-75",,,,,,
"1701189446.154",,"1596","444","-80","1612","441",
"1701189446.234","77","1733","663",,,,
"1701189446.235",,,,"67","1717","645",
"1701189446.315","108","1871",,,,,
"1701189446.316",,,"636","98","1860","630",
"1701189446.396","-108","2290","664","-106",,,
"1701189446.397",,,,,"2267","646",
"1701189446.477","-295","1942","412","-285","1950",,
"1701189446.478",,,,,,"419",
"1701189446.558","-70","2087","249",,,,
"1701189446.559",,,,"-83","2075","255",
"1701189446.639","-337","2017","171","-322",,,
"1701189446.64",,,,,"2010","167",
"1701189446.72","-326","2014","254",,,,
"1701189446.721",,,,"-327","2015","246",
"1701189446.801","67",,,,,,
"1701189446.802",,"2007","269","49","2009","267",
"1701189446.883","137","2005","367","131","2006","357",
"1701189446.964","78","1991","483","72","1987",,
"1701189446.965",,,,,,"472",
"1701189447.044","128",,,,,,
"1701189447.045",,"1982","515","123","1979","508",
"1701189447.124","228","2007",,,,,
"1701189447.125",,,"482","220","2003","481",
"1701189447.205","29","2002","491","33","1996","483",
"1701189447.285","87","1981","474","77","1977","473",
"1701189447.366","212",,,,,,
"1701189447.367",,"2000","516","206","1995","511",
"1701189447.448","229","1998","441","229","1991","444",
"1701189447.527","74","2012","420","77","2006","413",
"1701189447.607","8",,,,,,
"1701189447.608",,"2012","429","6","2008","423",
"1701189447.689","127","1989","459","116","1988","453",
"1701189447.767","170","1996",,,,,
"1701189447.768",,,"490","167","1992","484",
"1701189447.848","82",,,,,,
"1701189447.849",,"1999","455","80","1993","450",
"1701189447.929","39","2005","428",,,,
"1701189447.93",,,,"35","2000","426",
"1701189448.011","84",,,,,,
"1701189448.012",,"2038","387","77","2029","386",
"1701189448.091","-25",,,,,,
"1701189448.092",,"1997","400","-22","1993","396",
"1701189448.173","2","2036","462","0","2029","453",
"1701189448.252","0","1998",,,,,
"1701189448.253",,,"400","-2","1998","396",
"1701189448.333","-23",,,,,,
"1701189448.334",,"1994","386","-24","1986","379",
"1701189448.413","-45",,,,,,
"1701189448.414",,"1994","441","-52","1986","432",
"1701189448.494","18",,,,,,
"1701189448.495",,"1976","485","14","1975","479",
"1701189448.575","141","1999",,,,,
"1701189448.576",,,"477","134","1997","477",
"1701189448.656","-69","2047","454",,,,
"1701189448.657",,,,"-63","2037","449",
"1701189448.737","-268",,,,,,
"1701189448.738",,"1957","401","-263","1956","397",
"1701189448.818","15",,,,,,
"1701189448.819",,"2012","452","4","2004","444",
"1701189448.899","0","2010",,,,,
"1701189448.9",,,"471","0","2002","462",
"1701189448.98","-59","1995","464","-55","1990","458",
"1701189449.06","-76",,,,,,
"1701189449.061",,"2023","438","-79","2015","434",
"1701189449.14","-181","2010","383","-176","2008","382",
"1701189449.22","-229",,,,,,
"1701189449.221",,"1994","370","-229","1993","367",
"1701189449.301","-25","1985","406","-34","1983","398",
"1701189449.382","64","2037","478","56","2028","467",
"1701189449.463","-105","2021","411","-95","2020","409",
"1701189449.543","-406",,,,,,
"1701189449.544",,"2004","337","-392","2002","338",
"1701189449.624","-236",,,,,,
"1701189449.625",,"1960","396","-251","1957","387",
"1701189449.704","113","2004",,,,,
"1701189449.705",,,"462","93","1997","454",
"1701189449.784","-20",,,,,,
"1701189449.785",,"1999","475","-13","2000","475",
"1701189449.866","-285",,,,,,
"1701189449.867",,"2022","473","-280","2016","470",
"1701189449.946","-146",,,,,,
"1701189449.947",,"1958","397","-157","1957","396",
"1701189450.028","-48","1984","430","-51","1985","426",
"1701189450.121","-159","1977","429","-155","1974",,
"1701189450.122",,,,,,"426",
"1701189450.189","-83",,,,,,
"1701189450.19",,"2017","455","-94","2007","447",
"1701189450.27","-78","2025",,,,,
"1701189450.271",,,"436","-82","2018","430",
"1701189450.351","-162",,,,,,
"1701189450.352",,"1975","401","-157","1975","401",
"1701189450.431","-57",,,,,,
"1701189450.432",,"1999","445","-66","1995","436",
"1701189450.513","-64","1986","458","-61","1984","456",
"1701189450.593","-105",,,,,,
"1701189450.594",,"2023","484","-107","2015","478",
"1701189450.672","-98",,,,,,
"1701189450.673",,"2016","434","-97","2012","433",
"1701189450.753","-134",,,,,,
"1701189450.754",,"2002","390","-130","1997","387",
"1701189450.834","-78",,,,,,
"1701189450.835",,"1983","437","-86","1980","430",
"1701189450.915","8",,,,,,
"1701189450.916",,"1987","484","4","1984","481",
"1701189450.997","-19","2028","446","-22","2022","446",
"1701189451.076","-151",,,,,,
"1701189451.077",,"1984","378","-150","1981","376",
"1701189451.16","-54","2034","393","-63","2027","386",
"1701189451.237","-54","2019","350","-53","2015","349",
"1701189451.317","-83",,,,,,
"1701189451.318",,"2011","346","-87","2010","344",
"1701189451.398","-164",,,,,,
"1701189451.399",,"1999","367","-163","1994","360",
"1701189451.478","28","1991","505","14","1984","492",
"1701189451.559","-12","2039","479","-11","2034","477",
"1701189451.639","-145","2011","429","-144","2008","429",
"1701189451.718","-87",,,,,,
"1701189451.719",,"1936","300","-95","1940","303",
"1701189451.8","137","2072","355","122","2054","346",
"1701189451.88","-15",,,,,,
"1701189451.881",,"1995","301","-17","1991","302",
"1701189451.961","-51","2029","229","-52","2024","229",
"1701189452.042","-36","2030","211","-37","2026","205",
"1701189452.121","-41",,,,,,
"1701189452.122",,"2042","220","-39","2040","211",
"1701189452.203","144","2037","253","130","2034","244",
"1701189452.283","176",,,,,,
"1701189452.284",,"2062","173","170","2056","174",
"1701189452.363","72",,,,,,
"1701189452.364",,"2058","147","73","2055","140",
"1701189452.444","48",,,,,,
"1701189452.445",,"2072","131","42","2067","131",
"1701189452.526","131","2078","104","123","2070","102",
"1701189452.607","120","2057","119","124","2052","108",
"1701189452.688","47","2040","161","42","2038","156",
"1701189452.767","20",,,,,,
"1701189452.768",,"2078","68","21","2072","70",
"1701189452.849","22",,,,,,
"1701189452.85",,"2056","117","18","2055","108",
"1701189452.929","197",,,,,,
"1701189452.93",,"2089","138","182","2084","133",
"1701189453.009","-58","2071",,,,,
"1701189453.01",,,"145","-45","2067","140",
"1701189453.09","140",,,,,,
"1701189453.091",,"2030","146","122","2022","140",
"1701189453.171","452",,,,,,
"1701189453.172",,"1957","236","440","1958","224",
"1701189453.257","-78","2045","245","-58",,,
"1701189453.258",,,,,"2041","241",
"1701189453.332","82",,,,,,
"1701189453.333",,"2029","220","70","2025","214",
"1701189453.414","-58","2040","225","-49","2032","215",
"1701189453.494","18",,,,,,
"1701189453.495",,"2061","215","9","2054","212",
"1701189453.575","0","2023","194","-1","2017","189",
"1701189453.655","-48",,,,,,
"1701189453.656",,"2021","226","-47","2017","222",
"1701189453.736","-37","2033","269","-42","2026","262",
"1701189453.817","-63","2034","289","-60","2028","282",
"1701189453.897","-102",,,,,,
"1701189453.898",,"2039","263","-106","2031","260",
"1701189453.979","-87","2027","247","-89","2025","245",
"1701189454.059","-105","2041","253","-108","2036","247",
"1701189454.14","-80","2041","260","-86","2036","254",
"1701189454.22","-12","2038","275","-20","2032","270",
"1701189454.3","-74",,,,,,
"1701189454.301",,"2022","237","-68","2021","233",
"1701189454.381","-156",,,,,,
"1701189454.382",,"2038","205","-153","2036","203",
"1701189454.462","-77","2041","224","-86","2036","223",
"1701189454.542","-126",,,,,,
"1701189454.543",,"2030","236","-124","2024","229",
"1701189454.624","-90","2035","261","-90","2026","252",
"1701189454.706","-90","2031","265","-84","2026","260",
"1701189454.786","-90",,,,,,
"1701189454.787",,"2031","258","-95","2026","254",
"1701189454.868","-105","2035","261","-101","2027","254",
"1701189454.954","-90","2032","262","-93","2026","258",
"1701189455.028","-75",,,,,,
"1701189455.029",,"2030","277","-81","2026","272",
"1701189455.11","-90","2027","273","-92",,,
"1701189455.111",,,,,"2023","267",
"1701189455.191","-84","2030","278","-83",,,
"1701189455.192",,,,,"2024","274",
"1701189455.27","-90","2030","271","-90","2026","269",
"1701189455.351","-105","2036","278","-107","2027","272",
"1701189455.432","-105","2025","266","-105","2025","265",
"1701189455.513","-90","2030","278","-93","2023","276",
"1701189455.593","-92","2030","278","-95","2024","271",
"1701189455.674","-62","2039","257","-67","2034","253",
"1701189455.755","-128","2030","270","-124","2025","266",
"1701189455.834","-15","2031","333","-22","2027","325",
"1701189455.915","-163","2023","314","-154","2017","310",
"1701189455.993","0",,,,,,
"1701189455.994",,"2018","309","-7","2011","306",
"1701189456.075","-92","2031","306","-88","2023","301",
"1701189456.156","-36","2019","302","-42","2017","301",
"1701189456.237","-50","2031","294","-48","2029","290",
"1701189456.318","-132","2036","269","-130","2030",,
"1701189456.319",,,,,,"264",
"1701189456.398","-120",,,,,,
"1701189456.399",,"2035","282","-124","2030","276",
"1701189456.479","-95","2015","271","-100","2014","267",
"1701189456.56","-150","2006","251","-144","2003","250",
"1701189456.641","-119","2009","285","-119","2003","278",
"1701189456.721","-80",,,,,,
"1701189456.722",,"2031","375","-80","2019","363",
"1701189456.801","-90","2030","431","-90","2024",,
"1701189456.802",,,,,,"423",
"1701189456.893","-68","2024","405","-71","2020","403",
"1701189456.962","-9","2031","376","-11","2025","377",
"1701189457.043","0","2028","330","0","2023","328",
"1701189457.124","-11","2024","307","-12","2021","302",
"1701189457.204","-15","2028","318","-14","2025","313",
"1701189457.286","-6","2031","299","-10","2025","297",
"1701189457.367","-62","2034","278","-61","2026","277",
